{
    "resourceType": "Bundle",
    "id": "ra-parameters-standard-bundle",
    "type": "transaction",
    "entry": [
        {
            "resource": {
                "resourceType": "Patient",
                "id": "ra-patient01",
                "meta": {
                    "profile": [
                        "http://hl7.org/fhir/us/core/StructureDefinition/us-core-patient"
                    ],
                    "source": "http://example.org/fhir/server"
                },
                "extension": [
                    {
                        "url": "http://hl7.org/fhir/us/core/StructureDefinition/us-core-birthsex",
                        "valueCode": "F"
                    },
                    {
                        "url": "http://hl7.org/fhir/us/core/StructureDefinition/us-core-race",
                        "extension": [
                            {
                                "url": "ombCategory",
                                "valueCoding": {
                                    "system": "urn:oid:2.16.840.1.113883.6.238",
                                    "code": "2106-3",
                                    "display": "White"
                                }
                            },
                            {
                                "url": "text",
                                "valueString": "White"
                            }
                        ]
                    },
                    {
                        "url": "http://hl7.org/fhir/us/core/StructureDefinition/us-core-ethnicity",
                        "extension": [
                            {
                                "url": "ombCategory",
                                "valueCoding": {
                                    "system": "urn:oid:2.16.840.1.113883.6.238",
                                    "code": "2186-5",
                                    "display": "Not Hispanic or Latino"
                                }
                            },
                            {
                                "url": "text",
                                "valueString": "Not Hispanic or Latino"
                            }
                        ]
                    }
                ],
                "identifier": [
                    {
                        "use": "usual",
                        "type": {
                            "coding": [
                                {
                                    "system": "http://terminology.hl7.org/CodeSystem/v2-0203",
                                    "code": "MR",
                                    "display": "Medical record number"
                                }
                            ]
                        },
                        "system": "http://hospital.davinci.org",
                        "value": "12345"
                    }
                ],
                "active": true,
                "name": [
                    {
                        "use": "official",
                        "family": "Everywoman",
                        "given": [
                            "Eve"
                        ]
                    }
                ],
                "gender": "female",
                "birthDate": "1975-01-16",
                "deceasedBoolean": false,
                "address": [
                    {
                        "use": "home",
                        "line": [
                            "2222 Home Street"
                        ],
                        "city": "Ann Arbor",
                        "state": "MI",
                        "postalCode": "99999",
                        "country": "USA"
                    }
                ],
                "maritalStatus": {
                    "coding": [
                        {
                            "system": "http://terminology.hl7.org/CodeSystem/v3-MaritalStatus",
                            "code": "M",
                            "display": "Married"
                        }
                    ]
                },
                "communication": [
                    {
                        "language": {
                            "coding": [
                                {
                                    "system": "urn:ietf:bcp:47",
                                    "code": "en-US",
                                    "display": "English (Region=United States)"
                                }
                            ]
                        },
                        "preferred": true
                    }
                ]
            },
            "request": {
                "method": "PUT",
                "url": "Patient/ra-patient01"
            }
        },
        {
            "resource": {
                "resourceType": "Patient",
                "id": "ra-patient04",
                "meta": {
                    "profile": [
                        "http://hl7.org/fhir/us/core/StructureDefinition/us-core-patient"
                    ],
                    "source": "http://example.org/fhir/server"
                },
                "extension": [
                    {
                        "url": "http://hl7.org/fhir/us/core/StructureDefinition/us-core-birthsex",
                        "valueCode": "F"
                    },
                    {
                        "url": "http://hl7.org/fhir/us/core/StructureDefinition/us-core-race",
                        "extension": [
                            {
                                "url": "ombCategory",
                                "valueCoding": {
                                    "system": "urn:oid:2.16.840.1.113883.6.238",
                                    "code": "2054-5",
                                    "display": "Black or African American"
                                }
                            },
                            {
                                "url": "text",
                                "valueString": "Black or African American"
                            }
                        ]
                    },
                    {
                        "url": "http://hl7.org/fhir/us/core/StructureDefinition/us-core-ethnicity",
                        "extension": [
                            {
                                "url": "ombCategory",
                                "valueCoding": {
                                    "system": "urn:oid:2.16.840.1.113883.6.238",
                                    "code": "2186-5",
                                    "display": "Not Hispanic or Latino"
                                }
                            },
                            {
                                "url": "text",
                                "valueString": "Not Hispanic or Latino"
                            }
                        ]
                    }
                ],
                "identifier": [
                    {
                        "use": "usual",
                        "type": {
                            "coding": [
                                {
                                    "system": "http://terminology.hl7.org/CodeSystem/v2-0203",
                                    "code": "MR",
                                    "display": "Medical record number"
                                }
                            ]
                        },
                        "system": "http://hospital.davinci.org",
                        "value": "34568"
                    }
                ],
                "active": true,
                "name": [
                    {
                        "use": "official",
                        "family": "Jane",
                        "given": [
                            "Doh"
                        ]
                    }
                ],
                "gender": "female",
                "birthDate": "1965-07-26",
                "deceasedBoolean": false,
                "address": [
                    {
                        "use": "home",
                        "line": [
                            "777 Home Street"
                        ],
                        "city": "Ann Arbor",
                        "state": "MI",
                        "postalCode": "99999",
                        "country": "USA"
                    }
                ],
                "maritalStatus": {
                    "coding": [
                        {
                            "system": "http://terminology.hl7.org/CodeSystem/v3-MaritalStatus",
                            "code": "M",
                            "display": "Married"
                        }
                    ]
                },
                "communication": [
                    {
                        "language": {
                            "coding": [
                                {
                                    "system": "urn:ietf:bcp:47",
                                    "code": "en-US",
                                    "display": "English (Region=United States)"
                                }
                            ]
                        },
                        "preferred": true
                    }
                ]
            },
            "request": {
                "method": "PUT",
                "url": "Patient/ra-patient04"
            }
        },
        {
            "resource": {
                "resourceType": "Patient",
                "id": "ra-patient00",
                "meta": {
                    "profile": [
                        "http://hl7.org/fhir/us/core/StructureDefinition/us-core-patient"
                    ],
                    "source": "http://example.org/fhir/server"
                },
                "extension": [
                    {
                        "url": "http://hl7.org/fhir/us/core/StructureDefinition/us-core-birthsex",
                        "valueCode": "F"
                    },
                    {
                        "url": "http://hl7.org/fhir/us/core/StructureDefinition/us-core-race",
                        "extension": [
                            {
                                "url": "ombCategory",
                                "valueCoding": {
                                    "system": "urn:oid:2.16.840.1.113883.6.238",
                                    "code": "2106-3",
                                    "display": "White"
                                }
                            },
                            {
                                "url": "text",
                                "valueString": "White"
                            }
                        ]
                    },
                    {
                        "url": "http://hl7.org/fhir/us/core/StructureDefinition/us-core-ethnicity",
                        "extension": [
                            {
                                "url": "ombCategory",
                                "valueCoding": {
                                    "system": "urn:oid:2.16.840.1.113883.6.238",
                                    "code": "2186-5",
                                    "display": "Not Hispanic or Latino"
                                }
                            },
                            {
                                "url": "text",
                                "valueString": "Not Hispanic or Latino"
                            }
                        ]
                    }
                ],
                "identifier": [
                    {
                        "use": "usual",
                        "type": {
                            "coding": [
                                {
                                    "system": "http://terminology.hl7.org/CodeSystem/v2-0203",
                                    "code": "MR",
                                    "display": "Medical record number"
                                }
                            ]
                        },
                        "system": "http://hospital.davinci.org",
                        "value": "12345"
                    }
                ],
                "active": true,
                "name": [
                    {
                        "use": "official",
                        "family": "Everyperson",
                        "given": [
                            "John"
                        ]
                    }
                ],
                "gender": "female",
                "birthDate": "1975-01-16",
                "deceasedBoolean": false,
                "address": [
                    {
                        "use": "home",
                        "line": [
                            "2222 Home Street"
                        ],
                        "city": "Ann Arbor",
                        "state": "MI",
                        "postalCode": "99999",
                        "country": "USA"
                    }
                ],
                "maritalStatus": {
                    "coding": [
                        {
                            "system": "http://terminology.hl7.org/CodeSystem/v3-MaritalStatus",
                            "code": "M",
                            "display": "Married"
                        }
                    ]
                },
                "communication": [
                    {
                        "language": {
                            "coding": [
                                {
                                    "system": "urn:ietf:bcp:47",
                                    "code": "en-US",
                                    "display": "English (Region=United States)"
                                }
                            ]
                        },
                        "preferred": true
                    }
                ]
            },
            "request": {
                "method": "PUT",
                "url": "Patient/ra-patient00"
            }
        },
        {
            "resource": {
                "resourceType": "Group",
                "id": "ra-group01",
                "type": "person",
                "actual": true,
                "member": [
                    {
                        "entity": {
                            "reference": "Patient/ra-patient01"
                        }
                    }
                ]
            },
            "request": {
                "method": "PUT",
                "url": "Group/ra-group01"
            }
        },
        {
            "resource": {
                "resourceType": "Condition",
                "id": "ra-condition01",
                "meta": {
                    "profile": [
                        "http://hl7.org/fhir/us/core/StructureDefinition/us-core-condition"
                    ],
                    "source": "http://example.org/fhir/server"
                },
                "clinicalStatus": {
                    "coding": [
                        {
                            "system": "http://terminology.hl7.org/CodeSystem/condition-clinical",
                            "code": "active",
                            "display": "Active"
                        }
                    ],
                    "text": "Active"
                },
                "verificationStatus": {
                    "coding": [
                        {
                            "system": "http://terminology.hl7.org/CodeSystem/condition-ver-status",
                            "code": "confirmed",
                            "display": "Confirmed"
                        }
                    ],
                    "text": "Confirmed"
                },
                "category": [
                    {
                        "coding": [
                            {
                                "system": "http://terminology.hl7.org/CodeSystem/condition-category",
                                "code": "problem-list-item",
                                "display": "Problem List Item"
                            }
                        ],
                        "text": "Problem"
                    }
                ],
                "code": {
                    "coding": [
                        {
                            "system": "http://hl7.org/fhir/sid/icd-10-cm",
                            "code": "E11.8",
                            "display": "Type 2 diabetes mellitus with unspecified complications"
                        }
                    ],
                    "text": "Type 2 diabetes mellitus with unspecified complications"
                },
                "subject": {
                    "reference": "Patient/ra-patient01"
                },
                "onsetDateTime": "2020-06-10"
            },
            "request": {
                "method": "PUT",
                "url": "Condition/ra-condition01"
            }
        },
        {
            "resource": {
                "resourceType": "Condition",
                "id": "ra-condition02",
                "meta": {
                    "profile": [
                        "http://hl7.org/fhir/us/core/StructureDefinition/us-core-condition"
                    ],
                    "source": "http://example.org/fhir/server"
                },
                "clinicalStatus": {
                    "coding": [
                        {
                            "system": "http://terminology.hl7.org/CodeSystem/condition-clinical",
                            "code": "active",
                            "display": "Active"
                        }
                    ],
                    "text": "Active"
                },
                "verificationStatus": {
                    "coding": [
                        {
                            "system": "http://terminology.hl7.org/CodeSystem/condition-ver-status",
                            "code": "confirmed",
                            "display": "Confirmed"
                        }
                    ],
                    "text": "Confirmed"
                },
                "category": [
                    {
                        "coding": [
                            {
                                "system": "http://terminology.hl7.org/CodeSystem/condition-category",
                                "code": "problem-list-item",
                                "display": "Problem List Item"
                            }
                        ],
                        "text": "Problem"
                    }
                ],
                "code": {
                    "coding": [
                        {
                            "system": "http://hl7.org/fhir/sid/icd-10-cm",
                            "code": "F32",
                            "display": "Major Depressive Disorder, Single episode"
                        }
                    ],
                    "text": "Major Depressive Disorder, Single episode"
                },
                "subject": {
                    "reference": "Patient/ra-patient01"
                },
                "onsetDateTime": "2020-06-10"
            },
            "request": {
                "method": "PUT",
                "url": "Condition/ra-condition02"
            }
        },
        {
            "resource": {
                "resourceType": "MeasureReport",
                "id": "ra-measurereport01",
                "meta": {
                    "profile": [
                        "http://hl7.org/fhir/us/davinci-ra/StructureDefinition/ra-measurereport"
                    ],
                    "source": "http://example.org/fhir/server"
                },
                "extension": [
                    {
                        "url": "http://hl7.org/fhir/us/davinci-ra/StructureDefinition/ra-clinicalDataCollectionDeadline",
                        "valueDate": "2021-12-01"
                    }
                ],
                "status": "complete",
                "type": "individual",
                "measure": "https://build.fhir.org/ig/HL7/davinci-ra/Measure-RAModelExample01",
                "subject": {
                    "reference": "Patient/ra-patient01"
                },
                "date": "2021-10-18",
                "reporter": {
                    "reference": "Organization/ra-payer01"
                },
                "period": {
                    "start": "2021-01-01",
                    "end": "2021-09-30"
                },
                "group": [
                    {
                        "id": "group-001",
                        "code": {
                            "coding": [
                                {
                                    "system": "http://cms.gov/cms-hcc/",
                                    "version": "24",
                                    "code": "18",
                                    "display": "Diabetes with Chronic Complications"
                                }
                            ],
                            "text": "HCC 18: Diabetes with Chronic Complications"
                        },
                        "extension": [
                            {
                                "url": "http://hl7.org/fhir/us/davinci-ra/StructureDefinition/ra-suspectType",
                                "valueCodeableConcept": {
                                    "coding": [
                                        {
                                            "code": "historic",
                                            "system": "http://hl7.org/fhir/us/davinci-ra/CodeSystem/suspect-type"
                                        }
                                    ]
                                }
                            },
                            {
                                "url": "http://hl7.org/fhir/us/davinci-ra/StructureDefinition/ra-evidenceStatus",
                                "valueCodeableConcept": {
                                    "coding": [
                                        {
                                            "code": "closed-gap",
                                            "system": "http://hl7.org/fhir/us/davinci-ra/CodeSystem/evidence-status"
                                        }
                                    ]
                                }
                            },
                            {
                                "url": "http://hl7.org/fhir/us/davinci-ra/StructureDefinition/ra-evidenceStatusDate",
                                "valueDate": "2021-08-01"
                            },
                            {
                                "url": "http://hl7.org/fhir/us/davinci-ra/StructureDefinition/ra-hierarchicalStatus",
                                "valueCodeableConcept": {
                                    "coding": [
                                        {
                                            "code": "applied-not-superseded",
                                            "system": "http://hl7.org/fhir/us/davinci-ra/CodeSystem/hierarchical-status"
                                        }
                                    ]
                                }
                            }
                        ]
                    },
                    {
                        "id": "group-002",
                        "code": {
                            "coding": [
                                {
                                    "system": "http://cms.gov/cms-hcc/",
                                    "version": "24",
                                    "code": "59",
                                    "display": "Major Depressive, Bipolar, and Paranoid Disorders"
                                }
                            ],
                            "text": "HCC 59: Major Depressive, Bipolar, and Paranoid Disorders"
                        },
                        "extension": [
                            {
                                "url": "http://hl7.org/fhir/us/davinci-ra/StructureDefinition/ra-suspectType",
                                "valueCodeableConcept": {
                                    "coding": [
                                        {
                                            "code": "historic",
                                            "system": "http://hl7.org/fhir/us/davinci-ra/CodeSystem/suspect-type"
                                        }
                                    ]
                                }
                            },
                            {
                                "url": "http://hl7.org/fhir/us/davinci-ra/StructureDefinition/ra-evidenceStatus",
                                "valueCodeableConcept": {
                                    "coding": [
                                        {
                                            "code": "open-gap",
                                            "system": "http://hl7.org/fhir/us/davinci-ra/CodeSystem/evidence-status"
                                        }
                                    ]
                                }
                            },
                            {
                                "url": "http://hl7.org/fhir/us/davinci-ra/StructureDefinition/ra-evidenceStatusDate",
                                "valueDate": "2020-07-15"
                            },
                            {
                                "url": "http://hl7.org/fhir/us/davinci-ra/StructureDefinition/ra-hierarchicalStatus",
                                "valueCodeableConcept": {
                                    "coding": [
                                        {
                                            "code": "applied-not-superseded",
                                            "system": "http://hl7.org/fhir/us/davinci-ra/CodeSystem/hierarchical-status"
                                        }
                                    ]
                                }
                            }
                        ]
                    },
                    {
                        "id": "group-003",
                        "code": {
                            "coding": [
                                {
                                    "system": "http://cms.gov/cms-hcc/",
                                    "version": "24",
                                    "code": "22",
                                    "display": "Morbid Obesity"
                                }
                            ],
                            "text": "HCC 22: Morbid Obesity"
                        },
                        "extension": [
                            {
                                "url": "http://hl7.org/fhir/us/davinci-ra/StructureDefinition/ra-suspectType",
                                "valueCodeableConcept": {
                                    "coding": [
                                        {
                                            "code": "suspected",
                                            "system": "http://hl7.org/fhir/us/davinci-ra/CodeSystem/suspect-type"
                                        }
                                    ]
                                }
                            },
                            {
                                "url": "http://hl7.org/fhir/us/davinci-ra/StructureDefinition/ra-evidenceStatus",
                                "valueCodeableConcept": {
                                    "coding": [
                                        {
                                            "code": "closed-gap",
                                            "system": "http://hl7.org/fhir/us/davinci-ra/CodeSystem/evidence-status"
                                        }
                                    ]
                                }
                            },
                            {
                                "url": "http://hl7.org/fhir/us/davinci-ra/StructureDefinition/ra-evidenceStatusDate",
                                "valueDate": "2020-07-15"
                            },
                            {
                                "url": "http://hl7.org/fhir/us/davinci-ra/StructureDefinition/ra-hierarchicalStatus",
                                "valueCodeableConcept": {
                                    "coding": [
                                        {
                                            "code": "applied-not-superseded",
                                            "system": "http://hl7.org/fhir/us/davinci-ra/CodeSystem/hierarchical-status"
                                        }
                                    ]
                                }
                            }
                        ]
                    },
                    {
                        "id": "group-004",
                        "code": {
                            "coding": [
                                {
                                    "system": "http://cms.gov/cms-hcc/",
                                    "version": "24",
                                    "code": "96",
                                    "display": "Specified Heart Arrhythmias"
                                }
                            ],
                            "text": "HCC 96: Specified Heart Arrhythmias"
                        },
                        "extension": [
                            {
                                "url": "http://hl7.org/fhir/us/davinci-ra/StructureDefinition/ra-suspectType",
                                "valueCodeableConcept": {
                                    "coding": [
                                        {
                                            "code": "suspected",
                                            "system": "http://hl7.org/fhir/us/davinci-ra/CodeSystem/suspect-type"
                                        }
                                    ]
                                }
                            },
                            {
                                "url": "http://hl7.org/fhir/us/davinci-ra/StructureDefinition/ra-evidenceStatus",
                                "valueCodeableConcept": {
                                    "coding": [
                                        {
                                            "code": "pending",
                                            "system": "http://hl7.org/fhir/us/davinci-ra/CodeSystem/evidence-status"
                                        }
                                    ]
                                }
                            },
                            {
                                "url": "http://hl7.org/fhir/us/davinci-ra/StructureDefinition/ra-hierarchicalStatus",
                                "valueCodeableConcept": {
                                    "coding": [
                                        {
                                            "code": "applied-not-superseded",
                                            "system": "http://hl7.org/fhir/us/davinci-ra/CodeSystem/hierarchical-status"
                                        }
                                    ]
                                }
                            }
                        ]
                    },
                    {
                        "id": "group-005",
                        "code": {
                            "coding": [
                                {
                                    "system": "http://cms.gov/cms-hcc/",
                                    "version": "24",
                                    "code": "110",
                                    "display": "Cystic Fibrosis"
                                }
                            ],
                            "text": "HCC 110: Cystic Fibrosis"
                        },
                        "extension": [
                            {
                                "url": "http://hl7.org/fhir/us/davinci-ra/StructureDefinition/ra-suspectType",
                                "valueCodeableConcept": {
                                    "coding": [
                                        {
                                            "code": "historic",
                                            "system": "http://hl7.org/fhir/us/davinci-ra/CodeSystem/suspect-type"
                                        }
                                    ]
                                }
                            },
                            {
                                "url": "http://hl7.org/fhir/us/davinci-ra/StructureDefinition/ra-evidenceStatus",
                                "valueCodeableConcept": {
                                    "coding": [
                                        {
                                            "code": "open-gap",
                                            "system": "http://hl7.org/fhir/us/davinci-ra/CodeSystem/evidence-status"
                                        }
                                    ]
                                }
                            },
                            {
                                "url": "http://hl7.org/fhir/us/davinci-ra/StructureDefinition/ra-evidenceStatusDate",
                                "valueDate": "2020-07-15"
                            },
                            {
                                "url": "http://hl7.org/fhir/us/davinci-ra/StructureDefinition/ra-hierarchicalStatus",
                                "valueCodeableConcept": {
                                    "coding": [
                                        {
                                            "code": "applied-not-superseded",
                                            "system": "http://hl7.org/fhir/us/davinci-ra/CodeSystem/hierarchical-status"
                                        }
                                    ]
                                }
                            }
                        ]
                    }
                ],
                "evaluatedResource": [
                    {
                        "reference": "Condition/ra-condition01"
                    },
                    {
                        "reference": "Condition/ra-condition02"
                    }
                ]
            },
            "request": {
                "method": "PUT",
                "url": "MeasureReport/ra-measurereport01"
            }
        },
        {
            "resource": {
                "resourceType": "MeasureReport",
                "id": "ra-measurereport06",
                "meta": {
                    "profile": [
                        "http://hl7.org/fhir/us/davinci-ra/StructureDefinition/ra-measurereport"
                    ],
                    "source": "http://example.org/fhir/server"
                },
                "extension": [
                    {
                        "url": "http://hl7.org/fhir/us/davinci-ra/StructureDefinition/ra-clinicalDataCollectionDeadline",
                        "valueDate": "2021-12-01"
                    }
                ],
                "status": "complete",
                "type": "individual",
                "measure": "https://build.fhir.org/ig/HL7/davinci-ra/Measure-RAModelExample03",
                "subject": {
                    "reference": "Patient/ra-patient04"
                },
                "date": "2021-10-18",
                "reporter": {
                    "reference": "Organization/ra-payer01"
                },
                "period": {
                    "start": "2021-01-01",
                    "end": "2021-09-30"
                },
                "evaluatedResource": [
                    {
                        "reference": "Condition/ra-condition01"
                    },
                    {
                        "reference": "Condition/ra-condition02"
                    }
                ]
            },
            "request": {
                "method": "PUT",
                "url": "MeasureReport/ra-measurereport06"
            }
        }
    ]
}