{
  "resourceType": "Bundle",
  "id": "Result-Profile-In-RA",
  "meta": {
    "profile": [
      "http://hl7.org/fhir/us/davinci-ra/StructureDefinition/ra-bundle"
    ]
  },
  "identifier": {
    "system": "urn:ietf:rfc:3986",
    "value": "urn:uuid:53200545-98fd-42bb-91f8-02bc4c99e592"
  },
  "type": "document",
  "timestamp": "2022-05-01T13:02:53+00:00",
  "entry": [
    {
      "fullUrl": "http://example.org/fhir/ra/Composition/ra-result-profile-in-composition",
      "resource": {
        "resourceType": "Composition",
        "id": "ra-result-profile-in-composition",
        "meta": {
          "profile": [
            "http://hl7.org/fhir/us/davinci-ra/StructureDefinition/ra-composition"
          ]
        },
        "status": "final",
        "type": {
          "coding": [
            {
              "system": "http://loinc.org",
              "code": "96315-7",
              "display": "Gaps in care report"
            }
          ]
        },
        "subject": {
          "reference": "Patient/ra-result-profile-in-patient"
        },
        "date": "2022-05-01T13:02:53+00:00",
        "author": [
          {
            "reference": "Organization/ra-result-profile-in-organization-author"
          }
        ],
        "title": "Risk Adjustment Bundle for patient ra-result-profile-in-patient",
        "section": [
          {
            "title": "Risk Adjustment Report",
            "focus": {
              "reference": "MeasureReport/ra-result-profile-in-measurereport"
            },
            "entry": [
              {
                "reference": "DetectedIssue/ra-result-profile-in-detectedissue"
              }
            ]
          }
        ]
      }
    },
    {
      "resource": {
        "resourceType": "MeasureReport",
        "id": "ra-result-profile-in-measurereport",
        "meta": {
          "profile": [
            "http://hl7.org/fhir/us/davinci-ra/StructureDefinition/ra-measurereport"
          ]
        },
        "extension": [
          {
            "url": "http://hl7.org/fhir/us/davinci-ra/StructureDefinition/ra-clinicalDataCollectionDeadline",
            "valueDate": "2021-12-01"
          }
        ],
        "status": "complete",
        "type": "individual",
        "measure": "https://build.fhir.org/ig/HL7/davinci-ra/Measure-RAModelExample01",
        "subject": {
          "reference": "Patient/ra-result-profile-in-patient"
        },
        "date": "2021-10-18",
        "reporter": {
          "reference": "Organization/ra-result-profile-in-organization-reporter"
        },
        "period": {
          "start": "2021-01-01",
          "end": "2021-09-30"
        },
        "group": [
          {
            "id": "group-001",
            "code": {
              "coding": [
                {
                  "system": "http://terminology.hl7.org/CodeSystem/cmshcc",
                  "version": "24",
                  "code": "53",
                  "display": "Major Depressive, Bipolar, and Paranoid Disorders"
                }
              ],
              "text": "HCC 59: Major Depressive, Bipolar, and Paranoid Disorders"
            },
            "extension": [
              {
                "url": "http://hl7.org/fhir/us/davinci-ra/StructureDefinition/ra-suspectType",
                "valueCodeableConcept": {
                  "coding": [
                    {
                      "code": "historic",
                      "system": "http://hl7.org/fhir/us/davinci-ra/CodeSystem/suspect-type"
                    }
                  ]
                }
              },
              {
                "url": "http://hl7.org/fhir/us/davinci-ra/StructureDefinition/ra-evidenceStatus",
                "valueCodeableConcept": {
                  "coding": [
                    {
                      "code": "open-gap",
                      "system": "http://hl7.org/fhir/us/davinci-ra/CodeSystem/evidence-status"
                    }
                  ]
                }
              },
              {
                "url": "http://hl7.org/fhir/us/davinci-ra/StructureDefinition/ra-evidenceStatusDate",
                "valueDate": "2020-07-15"
              },
              {
                "url": "http://hl7.org/fhir/us/davinci-ra/StructureDefinition/ra-hierarchicalStatus",
                "valueCodeableConcept": {
                  "coding": [
                    {
                      "code": "applied-not-superseded",
                      "system": "http://hl7.org/fhir/us/davinci-ra/CodeSystem/hierarchical-status"
                    }
                  ]
                }
              }
            ]
          }
        ],
        "evaluatedResource": [
          {
            "extension": [
              {
                "url": "http://hl7.org/fhir/us/davinci-ra/StructureDefinition/ra-groupReference",
                "valueString": "group-001"
              }
            ],
            "reference": "Patient/ra-result-profile-in-patient"
          },
          {
            "extension": [
              {
                "url": "http://hl7.org/fhir/us/davinci-ra/StructureDefinition/ra-groupReference",
                "valueString": "group-001"
              }
            ],
            "reference": "Condition/ra-result-profile-in-condition"
          },
          {
            "extension": [
              {
                "url": "http://hl7.org/fhir/us/davinci-ra/StructureDefinition/ra-groupReference",
                "valueString": "group-001"
              }
            ],
            "reference": "Encounter/ra-result-profile-in-encounter"
          }
        ]
      },
      "request": {
        "method": "PUT",
        "url": "MeasureReport/ra-result-profile-in-measurereport"
      }
    },
    {
      "fullUrl": "http://example.org/fhir/gaps/DetectedIssue/ra-result-profile-in-detectedissue",
      "resource": {
        "resourceType": "DetectedIssue",
        "id": "ra-result-profile-in-detectedissue",
        "meta": {
          "profile": [
            "http://hl7.org/fhir/us/davinci-ra/StructureDefinition/ra-detectedissue"
          ]
        },
        "modifierExtension": [
          {
            "url": "http://hl7.org/fhir/us/davinci-ra/StructureDefinition/extension-codingGapType",
            "valueCodeableConcept": {
              "coding": [
                {
                  "system": "http://hl7.org/fhir/us/davinci-ra/ValueSet/coding-gap-type",
                  "code": "gap-closure-request"
                }
              ]
            }
          }
        ],
        "extension": [
          {
            "url": "http://hl7.org/fhir/us/davinci-ra/StructureDefinition/ra-groupReference",
            "valueString": "group-001"
          }
        ],
        "status": "final",
        "code": {
          "coding": [
            {
              "system": "http://terminology.hl7.org/CodeSystem/v3-ActCode",
              "code": "CODINGGAP",
              "display": "Coding Gaps"
            }
          ]
        },
        "patient": {
          "reference": "Patient/ra-result-profile-in-patient"
        },
        "evidence": [
          {
            "detail": [
              {
                "reference": "MeasureReport/ra-result-profile-in-measurereport"
              }
            ]
          }
        ]
      }
    },
    {
      "fullUrl": "http://example.org/fhir/ra/Patient/ra-result-profile-in-patient",
      "resource": {
        "resourceType": "Patient",
        "id": "ra-result-profile-in-patient",
        "meta": {
          "profile": [
            "http://hl7.org/fhir/us/core/StructureDefinition/us-core-patient"
          ]
        },
        "extension": [
          {
            "extension": [
              {
                "url": "ombCategory",
                "valueCoding": {
                  "system": "urn:oid:2.16.840.1.113883.6.238",
                  "code": "2028-9",
                  "display": "Asian"
                }
              },
              {
                "url": "text",
                "valueString": "Asian"
              }
            ],
            "url": "http://hl7.org/fhir/us/core/StructureDefinition/us-core-race"
          },
          {
            "extension": [
              {
                "url": "ombCategory",
                "valueCoding": {
                  "system": "urn:oid:2.16.840.1.113883.6.238",
                  "code": "2135-2",
                  "display": "Hispanic or Latino"
                }
              },
              {
                "url": "text",
                "valueString": "Hispanic or Latino"
              }
            ],
            "url": "http://hl7.org/fhir/us/core/StructureDefinition/us-core-ethnicity"
          }
        ],
        "identifier": [
          {
            "use": "usual",
            "type": {
              "coding": [
                {
                  "system": "http://terminology.hl7.org/CodeSystem/v2-0203",
                  "code": "MR",
                  "display": "Medical Record Number"
                }
              ]
            },
            "system": "http://hospital.smarthealthit.org",
            "value": "999995992"
          }
        ],
        "name": [
          {
            "family": "Result",
            "given": [
              "ProfileIn"
            ]
          }
        ],
        "gender": "female",
        "birthDate": "1965-01-01"
      }
    },
    {
      "resource": {
        "resourceType": "Condition",
        "id": "ra-result-profile-in-condition",
        "meta": {
          "profile": [
            "http://hl7.org/fhir/us/core/StructureDefinition/us-core-condition"
          ]
        },
        "clinicalStatus": {
          "coding": [
            {
              "system": "http://terminology.hl7.org/CodeSystem/condition-clinical",
              "code": "active",
              "display": "Active"
            }
          ],
          "text": "Active"
        },
        "verificationStatus": {
          "coding": [
            {
              "system": "http://terminology.hl7.org/CodeSystem/condition-ver-status",
              "code": "confirmed",
              "display": "Confirmed"
            }
          ],
          "text": "Confirmed"
        },
        "category": [
          {
            "coding": [
              {
                "system": "http://terminology.hl7.org/CodeSystem/condition-category",
                "code": "encounter-diagnosis",
                "display": "Encounter Diagnosis"
              }
            ],
            "text": "Problem"
          }
        ],
        "code": {
          "coding": [
            {
              "system": "http://hl7.org/fhir/sid/icd-10-cm",
              "code": "F31.61",
              "display": "Bipolar disorder, current episode mixed, mild"
            }
          ],
          "text": "Bipolar disorder, current episode mixed, mild"
        },
        "subject": {
          "reference": "Patient/ra-result-profile-in-patient"
        },
        "onsetDateTime": "2017-02-03"
      },
      "request": {
        "method": "PUT",
        "url": "Condition/ra-result-profile-in-condition"
      }
    },
    {
      "resource": {
        "resourceType": "Encounter",
        "id": "ra-result-profile-in-encounter",
        "meta": {
          "extension": [
            {
              "url": "http://hl7.org/fhir/StructureDefinition/instance-name",
              "valueString": "Encounter with Dr Howell on 20210714 for Patient 03"
            },
            {
              "url": "http://hl7.org/fhir/StructureDefinition/instance-description",
              "valueMarkdown": "This is Encounter with Dr Howell on 20210714 for Patient 03."
            }
          ],
          "lastUpdated": "2021-07-14T11:56:57.250-04:00",
          "profile": [
            "http://hl7.org/fhir/us/core/StructureDefinition/us-core-encounter"
          ]
        },
        "status": "finished",
        "class": {
          "system": "http://terminology.hl7.org/CodeSystem/v3-ActCode",
          "code": "AMB",
          "display": "ambulatory"
        },
        "type": [
          {
            "coding": [
              {
                "system": "http://www.ama-assn.org/go/cpt",
                "code": "99215"
              }
            ],
            "text": "Office Visit, High Complexity"
          }
        ],
        "subject": {
          "reference": "Patient/ra-result-profile-in-patient"
        },
        "participant": [
          {
            "individual": {
              "reference": "Practitioner/ra-result-profile-in-practitioner"
            }
          }
        ],
        "diagnosis": [
          {
            "condition": {
              "reference": "Condition/ra-result-profile-in-condition"
            }
          }
        ],
        "period": {
          "start": "2017-02-03",
          "end": "2017-02-03"
        },
        "serviceProvider": {
          "reference": "Organization/ra-result-profile-in-organization"
        }
      },
      "request": {
        "method": "PUT",
        "url": "Encounter/ra-result-profile-in-encounter"
      }
    }
  ]
}