{
  "resourceType": "Parameters",
  "id": "coding-gaps-06d878ea-7567-4ac6-a65a-2ba5e0deb134",
  "parameter": [
    {
      "name": "return",
      "resource": {
        "resourceType": "Bundle",
        "id": "41dd0b07-1a5d-441f-8ab2-3db1af453314",
        "meta": {
          "lastUpdated": "2022-11-26T22:16:07.403-07:00",
          "profile": [
            "http://hl7.org/fhir/us/davinci-ra/StructureDefinition/ra-coding-gap-bundle"
          ]
        },
        "identifier": {
          "system": "urn:ietf:rfc:3986",
          "value": "urn:uuid:37ea771d-430d-4f7d-acdd-3d837111dfb4"
        },
        "type": "document",
        "timestamp": "2022-11-26T22:16:07.405-07:00",
        "entry": [
          {
            "fullUrl": "http://localhost:8080/fhir/Composition/6839e14d-0486-4bd1-a125-8d0769441d85",
            "resource": {
              "resourceType": "Composition",
              "id": "6839e14d-0486-4bd1-a125-8d0769441d85",
              "meta": {
                "lastUpdated": "2022-11-26T22:16:07.403-07:00",
                "profile": [
                  "http://hl7.org/fhir/us/davinci-ra/StructureDefinition/ra-coding-gap-composition"
                ]
              },
              "identifier": {
                "system": "urn:ietf:rfc:3986",
                "value": "urn:uuid:9abf3a3a-9a99-44e5-858b-dbf4481dcfdc"
              },
              "status": "preliminary",
              "type": {
                "coding": [
                  {
                    "system": "http://loinc.org",
                    "code": "96315-7",
                    "display": "Gaps in care report"
                  }
                ]
              },
              "subject": {
                "reference": "Patient/ra-patient02"
              },
              "date": "2022-11-26T22:16:07-07:00",
              "author": [
                {
                  "reference": "Organization/alphora-author"
                }
              ],
              "title": "Risk Adjustment Coding Gaps Report for Patient/ra-patient02",
              "section": [
                {
                  "code": {
                    "coding": [
                      {
                        "system": "http://terminology.hl7.org/CodeSystem/cmshcc",
                        "version": "24",
                        "code": "96",
                        "display": "Specified Heart.Arrhythmias"
                      }
                    ],
                    "text": "CMS HCC: 96, Specified Heart.Arrhythmias"
                  },
                  "focus": {
                    "reference": "MeasureReport/ra-measurereport03"
                  },
                  "entry": [
                    {
                      "reference": "DetectedIssue/ra-measurereport03-group-001"
                    }
                  ]
                },
                {
                  "code": {
                    "coding": [
                      {
                        "system": "http://terminology.hl7.org/CodeSystem/cmshcc",
                        "version": "24",
                        "code": "110",
                        "display": "Cystic Fibrosis"
                      }
                    ],
                    "text": "HCC 110: Cystic Fibrosis"
                  },
                  "focus": {
                    "reference": "MeasureReport/ra-measurereport03"
                  },
                  "entry": [
                    {
                      "reference": "DetectedIssue/ra-measurereport03-group-002"
                    }
                  ]
                }
              ]
            }
          },
          {
            "fullUrl": "http://localhost:8080/fhir/DetectedIssue/ra-measurereport03-group-001",
            "resource": {
              "resourceType": "DetectedIssue",
              "id": "ra-measurereport03-group-001",
              "meta": {
                "lastUpdated": "2022-11-26T22:16:07.400-07:00",
                "profile": [
                  "http://hl7.org/fhir/us/davinci-ra/StructureDefinition/ra-coding-gap-original-detectedissue"
                ]
              },
              "extension": [
                {
                  "url": "http://hl7.org/fhir/us/davinci-ra/StructureDefinition/ra-groupReference",
                  "valueString": "group-001"
                }
              ],
              "status": "preliminary",
              "code": {
                "coding": [
                  {
                    "system": "http://terminology.hl7.org/CodeSystem/cmshcc",
                    "version": "24",
                    "code": "96",
                    "display": "Specified Heart.Arrhythmias"
                  }
                ],
                "text": "CMS HCC: 96, Specified Heart.Arrhythmias"
              },
              "patient": {
                "reference": "Patient/ra-patient02"
              },
              "implicated": [
                {
                  "reference": "MeasureReport/ra-measurereport03"
                }
              ],
              "evidence": [
                {
                  "detail": [
                    {
                      "reference": "Condition/ra-condition31pat02"
                    }
                  ]
                },
                {
                  "detail": [
                    {
                      "reference": "Encounter/ra-encounter31pat02"
                    }
                  ]
                },
                {
                  "detail": [
                    {
                      "reference": "Patient/ra-patient02"
                    }
                  ]
                }
              ]
            }
          },
          {
            "fullUrl": "http://localhost:8080/fhir/DetectedIssue/ra-measurereport03-group-002",
            "resource": {
              "resourceType": "DetectedIssue",
              "id": "ra-measurereport03-group-002",
              "meta": {
                "lastUpdated": "2022-11-26T22:16:07.402-07:00",
                "profile": [
                  "http://hl7.org/fhir/us/davinci-ra/StructureDefinition/ra-coding-gap-original-detectedissue"
                ]
              },
              "extension": [
                {
                  "url": "http://hl7.org/fhir/us/davinci-ra/StructureDefinition/ra-groupReference",
                  "valueString": "group-002"
                }
              ],
              "status": "preliminary",
              "code": {
                "coding": [
                  {
                    "system": "http://terminology.hl7.org/CodeSystem/cmshcc",
                    "version": "24",
                    "code": "110",
                    "display": "Cystic Fibrosis"
                  }
                ],
                "text": "HCC 110: Cystic Fibrosis"
              },
              "patient": {
                "reference": "Patient/ra-patient02"
              },
              "implicated": [
                {
                  "reference": "MeasureReport/ra-measurereport03"
                }
              ],
              "evidence": [
                {
                  "detail": [
                    {
                      "reference": "Observation/ra-obs01pat02"
                    }
                  ]
                },
                {
                  "detail": [
                    {
                      "reference": "Patient/ra-patient02"
                    }
                  ]
                }
              ]
            }
          },
          {
            "fullUrl": "http://localhost:8080/fhir/MeasureReport/ra-measurereport03",
            "resource": {
              "resourceType": "MeasureReport",
              "id": "ra-measurereport03",
              "meta": {
                "versionId": "1",
                "lastUpdated": "2022-11-26T13:16:15.867-07:00",
                "source": "#U6zsLNF3ThEpKPYR",
                "profile": [
                  "http://hl7.org/fhir/us/davinci-ra/StructureDefinition/ra-measurereport"
                ]
              },
              "extension": [
                {
                  "url": "http://hl7.org/fhir/us/davinci-ra/StructureDefinition/ra-clinicalDataCollectionDeadline",
                  "valueDate": "2022-03-31"
                }
              ],
              "status": "complete",
              "type": "individual",
              "measure": "https://build.fhir.org/ig/HL7/davinci-ra/Measure-RAModelExample01",
              "subject": {
                "reference": "Patient/ra-patient02"
              },
              "date": "2021-10-18",
              "reporter": {
                "reference": "Organization/ra-payer01"
              },
              "period": {
                "start": "2021-01-01",
                "end": "2021-09-30"
              },
              "group": [
                {
                  "id": "group-001",
                  "extension": [
                    {
                      "url": "http://hl7.org/fhir/us/davinci-ra/StructureDefinition/ra-suspectType",
                      "valueCodeableConcept": {
                        "coding": [
                          {
                            "system": "http://hl7.org/fhir/us/davinci-ra/CodeSystem/suspect-type",
                            "code": "historic"
                          }
                        ]
                      }
                    },
                    {
                      "url": "http://hl7.org/fhir/us/davinci-ra/StructureDefinition/ra-evidenceStatus",
                      "valueCodeableConcept": {
                        "coding": [
                          {
                            "system": "http://hl7.org/fhir/us/davinci-ra/CodeSystem/evidence-status",
                            "code": "closed-gap"
                          }
                        ]
                      }
                    },
                    {
                      "url": "http://hl7.org/fhir/us/davinci-ra/StructureDefinition/ra-hierarchicalStatus",
                      "valueCodeableConcept": {
                        "coding": [
                          {
                            "system": "http://hl7.org/fhir/us/davinci-ra/CodeSystem/hierarchical-status",
                            "code": "applied-not-superseded"
                          }
                        ]
                      }
                    }
                  ],
                  "code": {
                    "coding": [
                      {
                        "system": "http://terminology.hl7.org/CodeSystem/cmshcc",
                        "version": "24",
                        "code": "96",
                        "display": "Specified Heart.Arrhythmias"
                      }
                    ],
                    "text": "CMS HCC: 96, Specified Heart.Arrhythmias"
                  }
                },
                {
                  "id": "group-002",
                  "extension": [
                    {
                      "url": "http://hl7.org/fhir/us/davinci-ra/StructureDefinition/ra-suspectType",
                      "valueCodeableConcept": {
                        "coding": [
                          {
                            "system": "http://hl7.org/fhir/us/davinci-ra/CodeSystem/suspect-type",
                            "code": "suspected"
                          }
                        ]
                      }
                    },
                    {
                      "url": "http://hl7.org/fhir/us/davinci-ra/StructureDefinition/ra-evidenceStatus",
                      "valueCodeableConcept": {
                        "coding": [
                          {
                            "system": "http://hl7.org/fhir/us/davinci-ra/CodeSystem/evidence-status",
                            "code": "open-gap"
                          }
                        ]
                      }
                    },
                    {
                      "url": "http://hl7.org/fhir/us/davinci-ra/StructureDefinition/ra-evidenceStatusDate",
                      "valueDate": "2020-07-15"
                    },
                    {
                      "url": "http://hl7.org/fhir/us/davinci-ra/StructureDefinition/ra-hierarchicalStatus",
                      "valueCodeableConcept": {
                        "coding": [
                          {
                            "system": "http://hl7.org/fhir/us/davinci-ra/CodeSystem/hierarchical-status",
                            "code": "applied-not-superseded"
                          }
                        ]
                      }
                    }
                  ],
                  "code": {
                    "coding": [
                      {
                        "system": "http://terminology.hl7.org/CodeSystem/cmshcc",
                        "version": "24",
                        "code": "110",
                        "display": "Cystic Fibrosis"
                      }
                    ],
                    "text": "HCC 110: Cystic Fibrosis"
                  }
                }
              ],
              "evaluatedResource": [
                {
                  "extension": [
                    {
                      "url": "http://hl7.org/fhir/us/davinci-ra/StructureDefinition/ra-groupReference",
                      "valueString": "group-001"
                    }
                  ],
                  "reference": "Condition/ra-condition31pat02"
                },
                {
                  "extension": [
                    {
                      "url": "http://hl7.org/fhir/us/davinci-ra/StructureDefinition/ra-groupReference",
                      "valueString": "group-001"
                    }
                  ],
                  "reference": "Encounter/ra-encounter31pat02"
                },
                {
                  "extension": [
                    {
                      "url": "http://hl7.org/fhir/us/davinci-ra/StructureDefinition/ra-groupReference",
                      "valueString": "group-002"
                    }
                  ],
                  "reference": "Observation/ra-obs01pat02"
                },
                {
                  "extension": [
                    {
                      "url": "http://hl7.org/fhir/us/davinci-ra/StructureDefinition/ra-groupReference",
                      "valueString": "group-001"
                    },
                    {
                      "url": "http://hl7.org/fhir/us/davinci-ra/StructureDefinition/ra-groupReference",
                      "valueString": "group-002"
                    }
                  ],
                  "reference": "Patient/ra-patient02"
                }
              ]
            }
          },
          {
            "fullUrl": "http://localhost:8080/fhir/Organization/alphora-author",
            "resource": {
              "resourceType": "Organization",
              "id": "alphora-author",
              "meta": {
                "extension": [
                  {
                    "url": "http://hl7.org/fhir/StructureDefinition/instance-name",
                    "valueString": "Organization for STU2 Testing"
                  },
                  {
                    "url": "http://hl7.org/fhir/StructureDefinition/instance-description",
                    "valueMarkdown": "Provider Organization for STU2 Testing data"
                  }
                ],
                "versionId": "1",
                "lastUpdated": "2022-11-26T13:16:16.164-07:00",
                "source": "#9JFtLKxgkrBoXPYH",
                "profile": [
                  "http://hl7.org/fhir/us/core/StructureDefinition/us-core-organization"
                ]
              },
              "active": true,
              "type": [
                {
                  "coding": [
                    {
                      "system": "http://terminology.hl7.org/CodeSystem/organization-type",
                      "code": "prov",
                      "display": "Healthcare Provider"
                    }
                  ]
                }
              ],
              "name": "GHH Outpatient Clinic",
              "telecom": [
                {
                  "system": "phone",
                  "value": "(+1) 555-555-3013 (ext 999)"
                },
                {
                  "system": "email",
                  "value": "patient_question_outpatient_clinic@GHH.com"
                }
              ],
              "address": [
                {
                  "line": [
                    "1060 Village Avenue"
                  ],
                  "city": "Ann Harbor",
                  "state": "MI",
                  "postalCode": "99999",
                  "country": "USA"
                }
              ]
            }
          },
          {
            "fullUrl": "http://localhost:8080/fhir/Patient/ra-patient02",
            "resource": {
              "resourceType": "Patient",
              "id": "ra-patient02",
              "meta": {
                "versionId": "1",
                "lastUpdated": "2022-11-26T13:16:16.265-07:00",
                "source": "#wIx499KWI9iK0diu",
                "profile": [
                  "http://hl7.org/fhir/us/core/StructureDefinition/us-core-patient"
                ]
              },
              "text": {
                "status": "generated",
                "div": "<div xmlns=\"http://www.w3.org/1999/xhtml\"><div class=\"hapiHeaderText\">Adam <b>EVERYMAN </b></div><table class=\"hapiPropertyTable\"><tbody><tr><td>Identifier</td><td>23456</td></tr><tr><td>Address</td><td><span>2222 Home Street </span><br/><span>Ann Arbor </span><span>MI </span><span>USA </span></td></tr><tr><td>Date of birth</td><td><span>16 December 1950</span></td></tr></tbody></table></div>"
              },
              "extension": [
                {
                  "url": "http://hl7.org/fhir/us/core/StructureDefinition/us-core-birthsex",
                  "valueCode": "M"
                },
                {
                  "url": "http://hl7.org/fhir/us/core/StructureDefinition/us-core-race",
                  "extension": [
                    {
                      "url": "ombCategory",
                      "valueCoding": {
                        "system": "urn:oid:2.16.840.1.113883.6.238",
                        "code": "2106-3",
                        "display": "White"
                      }
                    },
                    {
                      "url": "text",
                      "valueString": "White"
                    }
                  ]
                },
                {
                  "url": "http://hl7.org/fhir/us/core/StructureDefinition/us-core-ethnicity",
                  "extension": [
                    {
                      "url": "ombCategory",
                      "valueCoding": {
                        "system": "urn:oid:2.16.840.1.113883.6.238",
                        "code": "2186-5",
                        "display": "Not Hispanic or Latino"
                      }
                    },
                    {
                      "url": "text",
                      "valueString": "Not Hispanic or Latino"
                    }
                  ]
                }
              ],
              "identifier": [
                {
                  "use": "usual",
                  "type": {
                    "coding": [
                      {
                        "system": "http://terminology.hl7.org/CodeSystem/v2-0203",
                        "code": "MR",
                        "display": "Medical record number"
                      }
                    ]
                  },
                  "system": "http://hospital.davinci.org",
                  "value": "23456"
                }
              ],
              "active": true,
              "name": [
                {
                  "use": "official",
                  "family": "Everyman",
                  "given": [
                    "Adam"
                  ]
                }
              ],
              "gender": "female",
              "birthDate": "1950-12-16",
              "deceasedBoolean": false,
              "address": [
                {
                  "use": "home",
                  "line": [
                    "2222 Home Street"
                  ],
                  "city": "Ann Arbor",
                  "state": "MI",
                  "postalCode": "99999",
                  "country": "USA"
                }
              ],
              "maritalStatus": {
                "coding": [
                  {
                    "system": "http://terminology.hl7.org/CodeSystem/v3-MaritalStatus",
                    "code": "M",
                    "display": "Married"
                  }
                ]
              },
              "communication": [
                {
                  "language": {
                    "coding": [
                      {
                        "system": "urn:ietf:bcp:47",
                        "code": "en-US",
                        "display": "English (Region=United States)"
                      }
                    ]
                  },
                  "preferred": true
                }
              ]
            }
          },
          {
            "fullUrl": "http://localhost:8080/fhir/Encounter/ra-encounter31pat02",
            "resource": {
              "resourceType": "Encounter",
              "id": "ra-encounter31pat02",
              "meta": {
                "extension": [
                  {
                    "url": "http://hl7.org/fhir/StructureDefinition/instance-name",
                    "valueString": "Encounter with Dr Pump on 20210806 for Patient 02"
                  },
                  {
                    "url": "http://hl7.org/fhir/StructureDefinition/instance-description",
                    "valueMarkdown": "This is Encounter with Dr Howell on 20210806 for Patient 02."
                  }
                ],
                "versionId": "1",
                "lastUpdated": "2022-11-26T13:16:16.795-07:00",
                "source": "#DkaWlGZ62lrmQW1j",
                "profile": [
                  "http://hl7.org/fhir/us/core/StructureDefinition/us-core-encounter"
                ]
              },
              "status": "finished",
              "class": {
                "system": "http://terminology.hl7.org/CodeSystem/v3-ActCode",
                "code": "AMB",
                "display": "ambulatory"
              },
              "type": [
                {
                  "coding": [
                    {
                      "system": "http://www.ama-assn.org/go/cpt",
                      "code": "99215"
                    }
                  ],
                  "text": "Office Visit, High Complexity"
                }
              ],
              "subject": {
                "reference": "Patient/ra-patient02"
              },
              "participant": [
                {
                  "individual": {
                    "reference": "Practitioner/ra-prac02pat02"
                  }
                }
              ],
              "period": {
                "start": "2021-08-06",
                "end": "2021-08-06"
              },
              "diagnosis": [
                {
                  "condition": {
                    "reference": "Condition/ra-condition31pat02"
                  }
                }
              ],
              "serviceProvider": {
                "reference": "Organization/ra-org02pat02"
              }
            }
          },
          {
            "fullUrl": "http://localhost:8080/fhir/Observation/ra-obs01pat02",
            "resource": {
              "resourceType": "Observation",
              "id": "ra-obs01pat02",
              "meta": {
                "extension": [
                  {
                    "url": "http://hl7.org/fhir/StructureDefinition/instance-name",
                    "valueString": "Trypsin [Mass/volume] in Serum or Plasma for Pat01"
                  },
                  {
                    "url": "http://hl7.org/fhir/StructureDefinition/instance-description",
                    "valueMarkdown": "Trypsin [Mass/volume] in Serum or Plasma for Pat01*."
                  }
                ],
                "versionId": "1",
                "lastUpdated": "2022-11-26T13:16:16.861-07:00",
                "source": "#2thGL9GcyLmo6Ehy",
                "profile": [
                  "http://hl7.org/fhir/us/core/StructureDefinition/us-core-observation-lab"
                ]
              },
              "status": "final",
              "category": [
                {
                  "coding": [
                    {
                      "system": "http://terminology.hl7.org/CodeSystem/observation-category",
                      "code": "laboratory",
                      "display": "Laboratory"
                    }
                  ],
                  "text": "Laboratory"
                }
              ],
              "code": {
                "coding": [
                  {
                    "system": "http://loinc.org",
                    "code": "33325-2",
                    "display": "Trypsin [Mass/volume] in Serum or Plasma"
                  }
                ],
                "text": "Trypsin [Mass/volume] in Serum or Plasma"
              },
              "subject": {
                "reference": "Patient/ra-patient02",
                "display": "Adam Everyman"
              },
              "effectiveDateTime": "2019-06-17",
              "valueQuantity": {
                "value": 770,
                "unit": "ng/mL",
                "system": "http://unitsofmeasure.org"
              },
              "referenceRange": [
                {
                  "low": {
                    "value": 169,
                    "unit": "ng/mL",
                    "system": "http://unitsofmeasure.org",
                    "code": "ng/mL"
                  },
                  "high": {
                    "value": 773,
                    "unit": "ng/mL",
                    "system": "http://unitsofmeasure.org",
                    "code": "mg/dL"
                  },
                  "type": {
                    "coding": [
                      {
                        "system": "http://terminology.hl7.org/CodeSystem/referencerange-meaning",
                        "code": "normal",
                        "display": "Normal Range"
                      }
                    ],
                    "text": "Normal Range"
                  }
                }
              ]
            }
          },
          {
            "fullUrl": "http://localhost:8080/fhir/Condition/ra-condition31pat02",
            "resource": {
              "resourceType": "Condition",
              "id": "ra-condition31pat02",
              "meta": {
                "versionId": "1",
                "lastUpdated": "2022-11-26T13:16:16.733-07:00",
                "source": "#N4ZwazYPcvoQs2UT",
                "profile": [
                  "http://hl7.org/fhir/us/core/StructureDefinition/us-core-condition"
                ]
              },
              "clinicalStatus": {
                "coding": [
                  {
                    "system": "http://terminology.hl7.org/CodeSystem/condition-clinical",
                    "code": "active",
                    "display": "Active"
                  }
                ],
                "text": "Active"
              },
              "verificationStatus": {
                "coding": [
                  {
                    "system": "http://terminology.hl7.org/CodeSystem/condition-ver-status",
                    "code": "confirmed",
                    "display": "Confirmed"
                  }
                ],
                "text": "Confirmed"
              },
              "category": [
                {
                  "coding": [
                    {
                      "system": "http://terminology.hl7.org/CodeSystem/condition-category",
                      "code": "encounter-diagnosis",
                      "display": "Encounter Diagnosis"
                    }
                  ],
                  "text": "Encounter Diagnosis"
                }
              ],
              "code": {
                "coding": [
                  {
                    "system": "http://hl7.org/fhir/sid/icd-10-cm",
                    "code": "I48.3",
                    "display": "Typical atrial flutter"
                  }
                ],
                "text": "Typical atrial flutter"
              },
              "subject": {
                "reference": "Patient/ra-patient02"
              },
              "onsetDateTime": "2021-08-06"
            }
          }
        ]
      }
    }
  ]
}