{
  "resourceType": "Parameters",
  "id": "Patient-ra-patient01-report",
  "parameter": [
      {
          "id": "Patient-ra-patient01-report",
          "name": "return",
          "resource": {
              "resourceType": "Bundle",
              "id": "Patient-ra-patient01-report",
              "identifier": {
                  "system": "urn:ietf:rfc:3986",
                  "value": "urn:uuid:07520a58-47e5-4552-91a4-d668791a4434"
              },
              "type": "collection",
              "timestamp": "2021-10-18T23:22:13.021+00:00",
              "entry": [
                  {
                      "fullUrl": "https://ra-sandbox.alphora.com/cqf-ruler-r4/fhir/MeasureReport/ra-measurereport01",
                      "resource": {
                          "resourceType": "MeasureReport",
                          "id": "ra-measurereport01",
                          "meta": {
                              "versionId": "5",
                              "lastUpdated": "2021-10-18T23:22:09.428+00:00",
                              "source": "http://example.org/fhir/server#a5dm78rKeyNhaCtm",
                              "profile": [
                                  "http://hl7.org/fhir/us/davinci-ra/StructureDefinition/ra-measurereport"
                              ]
                          },
                          "extension": [
                              {
                                  "url": "http://hl7.org/fhir/us/davinci-ra/StructureDefinition/ra-clinicalDataCollectionDeadline",
                                  "valueDate": "2021-12-01"
                              }
                          ],
                          "status": "complete",
                          "type": "individual",
                          "measure": "https://build.fhir.org/ig/HL7/davinci-ra/Measure-RAModelExample01",
                          "subject": {
                              "reference": "Patient/ra-patient01"
                          },
                          "date": "2021-10-18",
                          "reporter": {
                              "reference": "Organization/ra-payer01"
                          },
                          "period": {
                              "start": "2021-01-01",
                              "end": "2021-09-30"
                          },
                          "group": [
                              {
                                  "id": "group-001",
                                  "extension": [
                                      {
                                          "url": "http://hl7.org/fhir/us/davinci-ra/StructureDefinition/ra-suspectType",
                                          "valueCodeableConcept": {
                                              "coding": [
                                                  {
                                                      "system": "http://hl7.org/fhir/us/davinci-ra/CodeSystem/suspect-type",
                                                      "code": "historic"
                                                  }
                                              ]
                                          }
                                      },
                                      {
                                          "url": "http://hl7.org/fhir/us/davinci-ra/StructureDefinition/ra-evidenceStatus",
                                          "valueCodeableConcept": {
                                              "coding": [
                                                  {
                                                      "system": "http://hl7.org/fhir/us/davinci-ra/CodeSystem/evidence-status",
                                                      "code": "closed-gap"
                                                  }
                                              ]
                                          }
                                      },
                                      {
                                          "url": "http://hl7.org/fhir/us/davinci-ra/StructureDefinition/ra-evidenceStatusDate",
                                          "valueDate": "2021-08-01"
                                      },
                                      {
                                          "url": "http://hl7.org/fhir/us/davinci-ra/StructureDefinition/ra-hiearchicalStatus",
                                          "valueCodeableConcept": {
                                              "coding": [
                                                  {
                                                      "system": "http://hl7.org/fhir/us/davinci-ra/CodeSystem/hiearchical-status",
                                                      "code": "applied-not-superseded"
                                                  }
                                              ]
                                          }
                                      }
                                  ],
                                  "code": {
                                      "coding": [
                                          {
                                              "system": "http://cms.gov/cms-hcc/",
                                              "version": "24",
                                              "code": "18",
                                              "display": "Diabetes with Chronic Complications"
                                          }
                                      ],
                                      "text": "HCC 18: Diabetes with Chronic Complications"
                                  }
                              },
                              {
                                  "id": "group-002",
                                  "extension": [
                                      {
                                          "url": "http://hl7.org/fhir/us/davinci-ra/StructureDefinition/ra-suspectType",
                                          "valueCodeableConcept": {
                                              "coding": [
                                                  {
                                                      "system": "http://hl7.org/fhir/us/davinci-ra/CodeSystem/suspect-type",
                                                      "code": "historic"
                                                  }
                                              ]
                                          }
                                      },
                                      {
                                          "url": "http://hl7.org/fhir/us/davinci-ra/StructureDefinition/ra-evidenceStatus",
                                          "valueCodeableConcept": {
                                              "coding": [
                                                  {
                                                      "system": "http://hl7.org/fhir/us/davinci-ra/CodeSystem/evidence-status",
                                                      "code": "open-gap"
                                                  }
                                              ]
                                          }
                                      },
                                      {
                                          "url": "http://hl7.org/fhir/us/davinci-ra/StructureDefinition/ra-evidenceStatusDate",
                                          "valueDate": "2020-07-15"
                                      },
                                      {
                                          "url": "http://hl7.org/fhir/us/davinci-ra/StructureDefinition/ra-hiearchicalStatus",
                                          "valueCodeableConcept": {
                                              "coding": [
                                                  {
                                                      "system": "http://hl7.org/fhir/us/davinci-ra/CodeSystem/hiearchical-status",
                                                      "code": "applied-not-superseded"
                                                  }
                                              ]
                                          }
                                      }
                                  ],
                                  "code": {
                                      "coding": [
                                          {
                                              "system": "http://cms.gov/cms-hcc/",
                                              "version": "24",
                                              "code": "59",
                                              "display": "Major Depressive, Bipolar, and Paranoid Disorders"
                                          }
                                      ],
                                      "text": "HCC 59: Major Depressive, Bipolar, and Paranoid Disorders"
                                  }
                              },
                              {
                                  "id": "group-003",
                                  "extension": [
                                      {
                                          "url": "http://hl7.org/fhir/us/davinci-ra/StructureDefinition/ra-suspectType",
                                          "valueCodeableConcept": {
                                              "coding": [
                                                  {
                                                      "system": "http://hl7.org/fhir/us/davinci-ra/CodeSystem/suspect-type",
                                                      "code": "suspected"
                                                  }
                                              ]
                                          }
                                      },
                                      {
                                          "url": "http://hl7.org/fhir/us/davinci-ra/StructureDefinition/ra-evidenceStatus",
                                          "valueCodeableConcept": {
                                              "coding": [
                                                  {
                                                      "system": "http://hl7.org/fhir/us/davinci-ra/CodeSystem/evidence-status",
                                                      "code": "closed-gap"
                                                  }
                                              ]
                                          }
                                      },
                                      {
                                          "url": "http://hl7.org/fhir/us/davinci-ra/StructureDefinition/ra-evidenceStatusDate",
                                          "valueDate": "2020-07-15"
                                      },
                                      {
                                          "url": "http://hl7.org/fhir/us/davinci-ra/StructureDefinition/ra-hiearchicalStatus",
                                          "valueCodeableConcept": {
                                              "coding": [
                                                  {
                                                      "system": "http://hl7.org/fhir/us/davinci-ra/CodeSystem/hiearchical-status",
                                                      "code": "applied-not-superseded"
                                                  }
                                              ]
                                          }
                                      }
                                  ],
                                  "code": {
                                      "coding": [
                                          {
                                              "system": "http://cms.gov/cms-hcc/",
                                              "version": "24",
                                              "code": "22",
                                              "display": "Morbid Obesity"
                                          }
                                      ],
                                      "text": "HCC 22: Morbid Obesity"
                                  }
                              },
                              {
                                  "id": "group-004",
                                  "extension": [
                                      {
                                          "url": "http://hl7.org/fhir/us/davinci-ra/StructureDefinition/ra-suspectType",
                                          "valueCodeableConcept": {
                                              "coding": [
                                                  {
                                                      "system": "http://hl7.org/fhir/us/davinci-ra/CodeSystem/suspect-type",
                                                      "code": "suspected"
                                                  }
                                              ]
                                          }
                                      },
                                      {
                                          "url": "http://hl7.org/fhir/us/davinci-ra/StructureDefinition/ra-evidenceStatus",
                                          "valueCodeableConcept": {
                                              "coding": [
                                                  {
                                                      "system": "http://hl7.org/fhir/us/davinci-ra/CodeSystem/evidence-status",
                                                      "code": "pending"
                                                  }
                                              ]
                                          }
                                      },
                                      {
                                          "url": "http://hl7.org/fhir/us/davinci-ra/StructureDefinition/ra-hiearchicalStatus",
                                          "valueCodeableConcept": {
                                              "coding": [
                                                  {
                                                      "system": "http://hl7.org/fhir/us/davinci-ra/CodeSystem/hiearchical-status",
                                                      "code": "applied-not-superseded"
                                                  }
                                              ]
                                          }
                                      }
                                  ],
                                  "code": {
                                      "coding": [
                                          {
                                              "system": "http://cms.gov/cms-hcc/",
                                              "version": "24",
                                              "code": "96",
                                              "display": "Specified Heart Arrhythmias"
                                          }
                                      ],
                                      "text": "HCC 96: Specified Heart Arrhythmias"
                                  }
                              },
                              {
                                  "id": "group-005",
                                  "extension": [
                                      {
                                          "url": "http://hl7.org/fhir/us/davinci-ra/StructureDefinition/ra-suspectType",
                                          "valueCodeableConcept": {
                                              "coding": [
                                                  {
                                                      "system": "http://hl7.org/fhir/us/davinci-ra/CodeSystem/suspect-type",
                                                      "code": "historic"
                                                  }
                                              ]
                                          }
                                      },
                                      {
                                          "url": "http://hl7.org/fhir/us/davinci-ra/StructureDefinition/ra-evidenceStatus",
                                          "valueCodeableConcept": {
                                              "coding": [
                                                  {
                                                      "system": "http://hl7.org/fhir/us/davinci-ra/CodeSystem/evidence-status",
                                                      "code": "open-gap"
                                                  }
                                              ]
                                          }
                                      },
                                      {
                                          "url": "http://hl7.org/fhir/us/davinci-ra/StructureDefinition/ra-evidenceStatusDate",
                                          "valueDate": "2020-07-15"
                                      },
                                      {
                                          "url": "http://hl7.org/fhir/us/davinci-ra/StructureDefinition/ra-hiearchicalStatus",
                                          "valueCodeableConcept": {
                                              "coding": [
                                                  {
                                                      "system": "http://hl7.org/fhir/us/davinci-ra/CodeSystem/hiearchical-status",
                                                      "code": "applied-not-superseded"
                                                  }
                                              ]
                                          }
                                      }
                                  ],
                                  "code": {
                                      "coding": [
                                          {
                                              "system": "http://cms.gov/cms-hcc/",
                                              "version": "24",
                                              "code": "110",
                                              "display": "Cystic Fibrosis"
                                          }
                                      ],
                                      "text": "HCC 110: Cystic Fibrosis"
                                  }
                              }
                          ],
                          "evaluatedResource": [
                              {
                                  "reference": "Condition/ra-condition01"
                              },
                              {
                                  "reference": "Condition/ra-condition02"
                              }
                          ]
                      }
                  },
                  {
                      "fullUrl": "https://ra-sandbox.alphora.com/cqf-ruler-r4/fhir/Condition/ra-condition01",
                      "resource": {
                          "resourceType": "Condition",
                          "id": "ra-condition01",
                          "meta": {
                              "versionId": "3",
                              "lastUpdated": "2021-10-18T23:22:09.428+00:00",
                              "source": "http://example.org/fhir/server#a5dm78rKeyNhaCtm",
                              "profile": [
                                  "http://hl7.org/fhir/us/core/StructureDefinition/us-core-condition"
                              ]
                          },
                          "clinicalStatus": {
                              "coding": [
                                  {
                                      "system": "http://terminology.hl7.org/CodeSystem/condition-clinical",
                                      "code": "active",
                                      "display": "Active"
                                  }
                              ],
                              "text": "Active"
                          },
                          "verificationStatus": {
                              "coding": [
                                  {
                                      "system": "http://terminology.hl7.org/CodeSystem/condition-ver-status",
                                      "code": "confirmed",
                                      "display": "Confirmed"
                                  }
                              ],
                              "text": "Confirmed"
                          },
                          "category": [
                              {
                                  "coding": [
                                      {
                                          "system": "http://terminology.hl7.org/CodeSystem/condition-category",
                                          "code": "problem-list-item",
                                          "display": "Problem List Item"
                                      }
                                  ],
                                  "text": "Problem"
                              }
                          ],
                          "code": {
                              "coding": [
                                  {
                                      "system": "http://hl7.org/fhir/sid/icd-10-cm",
                                      "code": "E11.8",
                                      "display": "Type 2 diabetes mellitus with unspecified complications"
                                  }
                              ],
                              "text": "Type 2 diabetes mellitus with unspecified complications"
                          },
                          "subject": {
                              "reference": "Patient/ra-patient01"
                          },
                          "onsetDateTime": "2020-06-10"
                      }
                  },
                  {
                      "fullUrl": "https://ra-sandbox.alphora.com/cqf-ruler-r4/fhir/Condition/ra-condition02",
                      "resource": {
                          "resourceType": "Condition",
                          "id": "ra-condition02",
                          "meta": {
                              "versionId": "3",
                              "lastUpdated": "2021-10-18T23:22:09.428+00:00",
                              "source": "http://example.org/fhir/server#a5dm78rKeyNhaCtm",
                              "profile": [
                                  "http://hl7.org/fhir/us/core/StructureDefinition/us-core-condition"
                              ]
                          },
                          "clinicalStatus": {
                              "coding": [
                                  {
                                      "system": "http://terminology.hl7.org/CodeSystem/condition-clinical",
                                      "code": "active",
                                      "display": "Active"
                                  }
                              ],
                              "text": "Active"
                          },
                          "verificationStatus": {
                              "coding": [
                                  {
                                      "system": "http://terminology.hl7.org/CodeSystem/condition-ver-status",
                                      "code": "confirmed",
                                      "display": "Confirmed"
                                  }
                              ],
                              "text": "Confirmed"
                          },
                          "category": [
                              {
                                  "coding": [
                                      {
                                          "system": "http://terminology.hl7.org/CodeSystem/condition-category",
                                          "code": "problem-list-item",
                                          "display": "Problem List Item"
                                      }
                                  ],
                                  "text": "Problem"
                              }
                          ],
                          "code": {
                              "coding": [
                                  {
                                      "system": "http://hl7.org/fhir/sid/icd-10-cm",
                                      "code": "F32",
                                      "display": "Major Depressive Disorder, Single episode"
                                  }
                              ],
                              "text": "Major Depressive Disorder, Single episode"
                          },
                          "subject": {
                              "reference": "Patient/ra-patient01"
                          },
                          "onsetDateTime": "2020-06-10"
                      }
                  }
              ]
          }
      }
  ]
}