{
    "resourceType": "Parameters",
    "id": "Patient-ra-patient01-report",
    "parameter": [
        {
            "id": "Patient-ra-patient01-report",
            "name": "return",
            "resource": {
                "resourceType": "Bundle",
                "id": "Patient-ra-patient01-report",
                "meta": {
                    "profile": [
                        "http://hl7.org/fhir/us/davinci-ra/StructureDefinition/ra-measurereport-bundle"
                    ]
                },
                "identifier": {
                    "system": "urn:ietf:rfc:3986",
                    "value": "urn:uuid:27a63f26-1372-4c7a-bd55-761bdeec9e01"
                },
                "type": "collection",
                "timestamp": "2021-11-06T21:22:48.735+00:00",
                "entry": [
                    {
                        "fullUrl": "https://ra-sandbox.alphora.com/cqf-ruler-r4/fhir/MeasureReport/ra-measurereport01",
                        "resource": {
                            "resourceType": "MeasureReport",
                            "id": "ra-measurereport01",
                            "meta": {
                                "profile": [
                                    "http://hl7.org/fhir/us/davinci-ra/StructureDefinition/ra-measurereport"
                                ]
                            },
                            "extension": [
                                {
                                    "url": "http://hl7.org/fhir/us/davinci-ra/StructureDefinition/ra-clinicalDataCollectionDeadline",
                                    "valueDate": "2021-12-01"
                                }
                            ],
                            "status": "complete",
                            "type": "individual",
                            "measure": "https://build.fhir.org/ig/HL7/davinci-ra/Measure-RAModelExample01",
                            "subject": {
                                "reference": "Patient/ra-patient01"
                            },
                            "date": "2021-10-18",
                            "reporter": {
                                "reference": "Organization/ra-payer01"
                            },
                            "period": {
                                "start": "2021-01-01",
                                "end": "2021-09-30"
                            },
                            "group": [
                                {
                                    "id": "group-001",
                                    "extension": [
                                        {
                                            "url": "http://hl7.org/fhir/us/davinci-ra/StructureDefinition/ra-suspectType",
                                            "valueCodeableConcept": {
                                                "coding": [
                                                    {
                                                        "system": "http://hl7.org/fhir/us/davinci-ra/CodeSystem/suspect-type",
                                                        "code": "historic"
                                                    }
                                                ]
                                            }
                                        },
                                        {
                                            "url": "http://hl7.org/fhir/us/davinci-ra/StructureDefinition/ra-evidenceStatus",
                                            "valueCodeableConcept": {
                                                "coding": [
                                                    {
                                                        "system": "http://hl7.org/fhir/us/davinci-ra/CodeSystem/evidence-status",
                                                        "code": "closed-gap"
                                                    }
                                                ]
                                            }
                                        },
                                        {
                                            "url": "http://hl7.org/fhir/us/davinci-ra/StructureDefinition/ra-evidenceStatusDate",
                                            "valueDate": "2021-08-01"
                                        },
                                        {
                                            "url": "http://hl7.org/fhir/us/davinci-ra/StructureDefinition/ra-hierarchicalStatus",
                                            "valueCodeableConcept": {
                                                "coding": [
                                                    {
                                                        "system": "http://hl7.org/fhir/us/davinci-ra/CodeSystem/hierarchical-status",
                                                        "code": "applied-not-superseded"
                                                    }
                                                ]
                                            }
                                        }
                                    ],
                                    "code": {
                                        "coding": [
                                            {
                                                "system": "http://cms.gov/cms-hcc/",
                                                "version": "24",
                                                "code": "18",
                                                "display": "Diabetes with Chronic Complications"
                                            }
                                        ],
                                        "text": "HCC 18: Diabetes with Chronic Complications"
                                    }
                                },
                                {
                                    "id": "group-002",
                                    "extension": [
                                        {
                                            "url": "http://hl7.org/fhir/us/davinci-ra/StructureDefinition/ra-suspectType",
                                            "valueCodeableConcept": {
                                                "coding": [
                                                    {
                                                        "system": "http://hl7.org/fhir/us/davinci-ra/CodeSystem/suspect-type",
                                                        "code": "historic"
                                                    }
                                                ]
                                            }
                                        },
                                        {
                                            "url": "http://hl7.org/fhir/us/davinci-ra/StructureDefinition/ra-evidenceStatus",
                                            "valueCodeableConcept": {
                                                "coding": [
                                                    {
                                                        "system": "http://hl7.org/fhir/us/davinci-ra/CodeSystem/evidence-status",
                                                        "code": "open-gap"
                                                    }
                                                ]
                                            }
                                        },
                                        {
                                            "url": "http://hl7.org/fhir/us/davinci-ra/StructureDefinition/ra-evidenceStatusDate",
                                            "valueDate": "2020-07-15"
                                        },
                                        {
                                            "url": "http://hl7.org/fhir/us/davinci-ra/StructureDefinition/ra-hierarchicalStatus",
                                            "valueCodeableConcept": {
                                                "coding": [
                                                    {
                                                        "system": "http://hl7.org/fhir/us/davinci-ra/CodeSystem/hierarchical-status",
                                                        "code": "applied-not-superseded"
                                                    }
                                                ]
                                            }
                                        }
                                    ],
                                    "code": {
                                        "coding": [
                                            {
                                                "system": "http://cms.gov/cms-hcc/",
                                                "version": "24",
                                                "code": "59",
                                                "display": "Major Depressive, Bipolar, and Paranoid Disorders"
                                            }
                                        ],
                                        "text": "HCC 59: Major Depressive, Bipolar, and Paranoid Disorders"
                                    }
                                },
                                {
                                    "id": "group-003",
                                    "extension": [
                                        {
                                            "url": "http://hl7.org/fhir/us/davinci-ra/StructureDefinition/ra-suspectType",
                                            "valueCodeableConcept": {
                                                "coding": [
                                                    {
                                                        "system": "http://hl7.org/fhir/us/davinci-ra/CodeSystem/suspect-type",
                                                        "code": "suspected"
                                                    }
                                                ]
                                            }
                                        },
                                        {
                                            "url": "http://hl7.org/fhir/us/davinci-ra/StructureDefinition/ra-evidenceStatus",
                                            "valueCodeableConcept": {
                                                "coding": [
                                                    {
                                                        "system": "http://hl7.org/fhir/us/davinci-ra/CodeSystem/evidence-status",
                                                        "code": "closed-gap"
                                                    }
                                                ]
                                            }
                                        },
                                        {
                                            "url": "http://hl7.org/fhir/us/davinci-ra/StructureDefinition/ra-evidenceStatusDate",
                                            "valueDate": "2020-07-15"
                                        },
                                        {
                                            "url": "http://hl7.org/fhir/us/davinci-ra/StructureDefinition/ra-hierarchicalStatus",
                                            "valueCodeableConcept": {
                                                "coding": [
                                                    {
                                                        "system": "http://hl7.org/fhir/us/davinci-ra/CodeSystem/hierarchical-status",
                                                        "code": "applied-not-superseded"
                                                    }
                                                ]
                                            }
                                        }
                                    ],
                                    "code": {
                                        "coding": [
                                            {
                                                "system": "http://cms.gov/cms-hcc/",
                                                "version": "24",
                                                "code": "22",
                                                "display": "Morbid Obesity"
                                            }
                                        ],
                                        "text": "HCC 22: Morbid Obesity"
                                    }
                                },
                                {
                                    "id": "group-004",
                                    "extension": [
                                        {
                                            "url": "http://hl7.org/fhir/us/davinci-ra/StructureDefinition/ra-suspectType",
                                            "valueCodeableConcept": {
                                                "coding": [
                                                    {
                                                        "system": "http://hl7.org/fhir/us/davinci-ra/CodeSystem/suspect-type",
                                                        "code": "suspected"
                                                    }
                                                ]
                                            }
                                        },
                                        {
                                            "url": "http://hl7.org/fhir/us/davinci-ra/StructureDefinition/ra-evidenceStatus",
                                            "valueCodeableConcept": {
                                                "coding": [
                                                    {
                                                        "system": "http://hl7.org/fhir/us/davinci-ra/CodeSystem/evidence-status",
                                                        "code": "pending"
                                                    }
                                                ]
                                            }
                                        },
                                        {
                                            "url": "http://hl7.org/fhir/us/davinci-ra/StructureDefinition/ra-hierarchicalStatus",
                                            "valueCodeableConcept": {
                                                "coding": [
                                                    {
                                                        "system": "http://hl7.org/fhir/us/davinci-ra/CodeSystem/hierarchical-status",
                                                        "code": "applied-not-superseded"
                                                    }
                                                ]
                                            }
                                        }
                                    ],
                                    "code": {
                                        "coding": [
                                            {
                                                "system": "http://cms.gov/cms-hcc/",
                                                "version": "24",
                                                "code": "96",
                                                "display": "Specified Heart Arrhythmias"
                                            }
                                        ],
                                        "text": "HCC 96: Specified Heart Arrhythmias"
                                    }
                                },
                                {
                                    "id": "group-005",
                                    "extension": [
                                        {
                                            "url": "http://hl7.org/fhir/us/davinci-ra/StructureDefinition/ra-suspectType",
                                            "valueCodeableConcept": {
                                                "coding": [
                                                    {
                                                        "system": "http://hl7.org/fhir/us/davinci-ra/CodeSystem/suspect-type",
                                                        "code": "historic"
                                                    }
                                                ]
                                            }
                                        },
                                        {
                                            "url": "http://hl7.org/fhir/us/davinci-ra/StructureDefinition/ra-evidenceStatus",
                                            "valueCodeableConcept": {
                                                "coding": [
                                                    {
                                                        "system": "http://hl7.org/fhir/us/davinci-ra/CodeSystem/evidence-status",
                                                        "code": "open-gap"
                                                    }
                                                ]
                                            }
                                        },
                                        {
                                            "url": "http://hl7.org/fhir/us/davinci-ra/StructureDefinition/ra-evidenceStatusDate",
                                            "valueDate": "2020-07-15"
                                        },
                                        {
                                            "url": "http://hl7.org/fhir/us/davinci-ra/StructureDefinition/ra-hierarchicalStatus",
                                            "valueCodeableConcept": {
                                                "coding": [
                                                    {
                                                        "system": "http://hl7.org/fhir/us/davinci-ra/CodeSystem/hierarchical-status",
                                                        "code": "applied-not-superseded"
                                                    }
                                                ]
                                            }
                                        }
                                    ],
                                    "code": {
                                        "coding": [
                                            {
                                                "system": "http://cms.gov/cms-hcc/",
                                                "version": "24",
                                                "code": "110",
                                                "display": "Cystic Fibrosis"
                                            }
                                        ],
                                        "text": "HCC 110: Cystic Fibrosis"
                                    }
                                }
                            ],
                            "evaluatedResource": [
                                {
                                    "reference": "Condition/ra-condition01"
                                },
                                {
                                    "reference": "Condition/ra-condition02"
                                }
                            ]
                        }
                    },
                    {
                        "fullUrl": "https://ra-sandbox.alphora.com/cqf-ruler-r4/fhir/Patient/ra-patient01",
                        "resource": {
                            "resourceType": "Patient",
                            "id": "ra-patient01",
                            "meta": {
                                "versionId": "1",
                                "lastUpdated": "2021-10-26T20:31:43.157+00:00",
                                "source": "http://example.org/fhir/server#dgJCM2f7qPG3DYlL",
                                "profile": [
                                    "http://hl7.org/fhir/us/core/StructureDefinition/us-core-patient"
                                ]
                            },
                            "text": {
                                "status": "generated",
                                "div": "<div xmlns=\"http://www.w3.org/1999/xhtml\"><div class=\"hapiHeaderText\">Eve <b>EVERYWOMAN </b></div><table class=\"hapiPropertyTable\"><tbody><tr><td>Identifier</td><td>12345</td></tr><tr><td>Address</td><td><span>2222 Home Street </span><br/><span>Ann Arbor </span><span>MI </span><span>USA </span></td></tr><tr><td>Date of birth</td><td><span>16 January 1975</span></td></tr></tbody></table></div>"
                            },
                            "extension": [
                                {
                                    "url": "http://hl7.org/fhir/us/core/StructureDefinition/us-core-birthsex",
                                    "valueCode": "F"
                                },
                                {
                                    "url": "http://hl7.org/fhir/us/core/StructureDefinition/us-core-race",
                                    "extension": [
                                        {
                                            "url": "ombCategory",
                                            "valueCoding": {
                                                "system": "urn:oid:2.16.840.1.113883.6.238",
                                                "code": "2106-3",
                                                "display": "White"
                                            }
                                        },
                                        {
                                            "url": "text",
                                            "valueString": "White"
                                        }
                                    ]
                                },
                                {
                                    "url": "http://hl7.org/fhir/us/core/StructureDefinition/us-core-ethnicity",
                                    "extension": [
                                        {
                                            "url": "ombCategory",
                                            "valueCoding": {
                                                "system": "urn:oid:2.16.840.1.113883.6.238",
                                                "code": "2186-5",
                                                "display": "Not Hispanic or Latino"
                                            }
                                        },
                                        {
                                            "url": "text",
                                            "valueString": "Not Hispanic or Latino"
                                        }
                                    ]
                                }
                            ],
                            "identifier": [
                                {
                                    "use": "usual",
                                    "type": {
                                        "coding": [
                                            {
                                                "system": "http://terminology.hl7.org/CodeSystem/v2-0203",
                                                "code": "MR",
                                                "display": "Medical record number"
                                            }
                                        ]
                                    },
                                    "system": "http://hospital.davinci.org",
                                    "value": "12345"
                                }
                            ],
                            "active": true,
                            "name": [
                                {
                                    "use": "official",
                                    "family": "Everywoman",
                                    "given": [
                                        "Eve"
                                    ]
                                }
                            ],
                            "gender": "female",
                            "birthDate": "1975-01-16",
                            "deceasedBoolean": false,
                            "address": [
                                {
                                    "use": "home",
                                    "line": [
                                        "2222 Home Street"
                                    ],
                                    "city": "Ann Arbor",
                                    "state": "MI",
                                    "postalCode": "99999",
                                    "country": "USA"
                                }
                            ],
                            "maritalStatus": {
                                "coding": [
                                    {
                                        "system": "http://terminology.hl7.org/CodeSystem/v3-MaritalStatus",
                                        "code": "M",
                                        "display": "Married"
                                    }
                                ]
                            },
                            "communication": [
                                {
                                    "language": {
                                        "coding": [
                                            {
                                                "system": "urn:ietf:bcp:47",
                                                "code": "en-US",
                                                "display": "English (Region=United States)"
                                            }
                                        ]
                                    },
                                    "preferred": true
                                }
                            ]
                        }
                    },
                    {
                        "fullUrl": "https://ra-sandbox.alphora.com/cqf-ruler-r4/fhir/Condition/ra-condition01",
                        "resource": {
                            "resourceType": "Condition",
                            "id": "ra-condition01",
                            "meta": {
                                "profile": [
                                    "http://hl7.org/fhir/us/core/StructureDefinition/us-core-condition"
                                ]
                            },
                            "clinicalStatus": {
                                "coding": [
                                    {
                                        "system": "http://terminology.hl7.org/CodeSystem/condition-clinical",
                                        "code": "active",
                                        "display": "Active"
                                    }
                                ],
                                "text": "Active"
                            },
                            "verificationStatus": {
                                "coding": [
                                    {
                                        "system": "http://terminology.hl7.org/CodeSystem/condition-ver-status",
                                        "code": "confirmed",
                                        "display": "Confirmed"
                                    }
                                ],
                                "text": "Confirmed"
                            },
                            "category": [
                                {
                                    "coding": [
                                        {
                                            "system": "http://terminology.hl7.org/CodeSystem/condition-category",
                                            "code": "problem-list-item",
                                            "display": "Problem List Item"
                                        }
                                    ],
                                    "text": "Problem"
                                }
                            ],
                            "code": {
                                "coding": [
                                    {
                                        "system": "http://hl7.org/fhir/sid/icd-10-cm",
                                        "code": "E11.8",
                                        "display": "Type 2 diabetes mellitus with unspecified complications"
                                    }
                                ],
                                "text": "Type 2 diabetes mellitus with unspecified complications"
                            },
                            "subject": {
                                "reference": "Patient/ra-patient01"
                            },
                            "onsetDateTime": "2020-06-10"
                        }
                    },
                    {
                        "fullUrl": "https://ra-sandbox.alphora.com/cqf-ruler-r4/fhir/Condition/ra-condition02",
                        "resource": {
                            "resourceType": "Condition",
                            "id": "ra-condition02",
                            "meta": {
                                "profile": [
                                    "http://hl7.org/fhir/us/core/StructureDefinition/us-core-condition"
                                ]
                            },
                            "clinicalStatus": {
                                "coding": [
                                    {
                                        "system": "http://terminology.hl7.org/CodeSystem/condition-clinical",
                                        "code": "active",
                                        "display": "Active"
                                    }
                                ],
                                "text": "Active"
                            },
                            "verificationStatus": {
                                "coding": [
                                    {
                                        "system": "http://terminology.hl7.org/CodeSystem/condition-ver-status",
                                        "code": "confirmed",
                                        "display": "Confirmed"
                                    }
                                ],
                                "text": "Confirmed"
                            },
                            "category": [
                                {
                                    "coding": [
                                        {
                                            "system": "http://terminology.hl7.org/CodeSystem/condition-category",
                                            "code": "problem-list-item",
                                            "display": "Problem List Item"
                                        }
                                    ],
                                    "text": "Problem"
                                }
                            ],
                            "code": {
                                "coding": [
                                    {
                                        "system": "http://hl7.org/fhir/sid/icd-10-cm",
                                        "code": "F32",
                                        "display": "Major Depressive Disorder, Single episode"
                                    }
                                ],
                                "text": "Major Depressive Disorder, Single episode"
                            },
                            "subject": {
                                "reference": "Patient/ra-patient01"
                            },
                            "onsetDateTime": "2020-06-10"
                        }
                    }
                ]
            }
        }
    ]
}