{
    "resourceType": "Bundle",
    "id": "report-results",
    "type": "transaction",
    "entry": [
        {
            "resource": {
                "resourceType": "MeasureReport",
                "id": "result-evaluatedresources-condition-in-ra",
                "meta": {
                    "profile": [
                        "http://hl7.org/fhir/us/davinci-ra/StructureDefinition/ra-measurereport"
                    ]
                },
                "extension": [
                    {
                        "url": "http://hl7.org/fhir/us/davinci-ra/StructureDefinition/ra-clinicalDataCollectionDeadline",
                        "valueDate": "2021-12-01"
                    }
                ],
                "status": "complete",
                "type": "individual",
                "measure": "https://build.fhir.org/ig/HL7/davinci-ra/Measure-RAModelExample01",
                "subject": {
                    "reference": "Patient/result-evaluatedresources-condition-in-ra"
                },
                "date": "2021-10-18",
                "reporter": {
                    "reference": "Organization/result-evaluatedresources-condition-in-ra-reporter"
                },
                "period": {
                    "start": "2021-01-01",
                    "end": "2021-09-30"
                },
                "group": [
                    {
                        "id": "group-001",
                        "code": {
                            "coding": [
                                {
                                    "system": "http://terminology.hl7.org/CodeSystem/cmshcc",
                                    "version": "24",
                                    "code": "18",
                                    "display": "Diabetes with Chronic Complications"
                                }
                            ],
                            "text": "HCC 18: Diabetes with Chronic Complications"
                        },
                        "extension": [
                            {
                                "url": "http://hl7.org/fhir/us/davinci-ra/StructureDefinition/ra-suspectType",
                                "valueCodeableConcept": {
                                    "coding": [
                                        {
                                            "code": "historic",
                                            "system": "http://hl7.org/fhir/us/davinci-ra/CodeSystem/suspect-type"
                                        }
                                    ]
                                }
                            },
                            {
                                "url": "http://hl7.org/fhir/us/davinci-ra/StructureDefinition/ra-evidenceStatus",
                                "valueCodeableConcept": {
                                    "coding": [
                                        {
                                            "code": "closed-gap",
                                            "system": "http://hl7.org/fhir/us/davinci-ra/CodeSystem/evidence-status"
                                        }
                                    ]
                                }
                            },
                            {
                                "url": "http://hl7.org/fhir/us/davinci-ra/StructureDefinition/ra-evidenceStatusDate",
                                "valueDate": "2021-04-01"
                            },
                            {
                                "url": "http://hl7.org/fhir/us/davinci-ra/StructureDefinition/ra-hierarchicalStatus",
                                "valueCodeableConcept": {
                                    "coding": [
                                        {
                                            "code": "applied-not-superseded",
                                            "system": "http://hl7.org/fhir/us/davinci-ra/CodeSystem/hierarchical-status"
                                        }
                                    ]
                                }
                            }
                        ]
                    }
                ],
                "evaluatedResource": [
                    {
                        "extension": [
                            {
                                "url": "http://hl7.org/fhir/us/davinci-ra/StructureDefinition/ra-groupReference",
                                "valueString": "group-001"
                            }
                        ],
                        "reference": "Condition/result-evaluatedresources-condition-in-ra-01"
                    },
                    {
                        "extension": [
                            {
                                "url": "http://hl7.org/fhir/us/davinci-ra/StructureDefinition/ra-groupReference",
                                "valueString": "group-001"
                            }
                        ],
                        "reference": "Condition/result-evaluatedresources-condition-in-ra-02"
                    },
                    {
                        "extension": [
                            {
                                "url": "http://hl7.org/fhir/us/davinci-ra/StructureDefinition/ra-groupReference",
                                "valueString": "group-001"
                            }
                        ],
                        "reference": "Encounter/result-evaluatedresources-condition-in-ra-01"
                    },
                    {
                        "extension": [
                            {
                                "url": "http://hl7.org/fhir/us/davinci-ra/StructureDefinition/ra-groupReference",
                                "valueString": "group-001"
                            }
                        ],
                        "reference": "Encounter/result-evaluatedresources-condition-in-ra-02"
                    },
                    {
                        "extension": [
                            {
                                "url": "http://hl7.org/fhir/us/davinci-ra/StructureDefinition/ra-groupReference",
                                "valueString": "group-001"
                            }
                        ],
                        "reference": "Patient/result-evaluatedresources-condition-in-ra"
                    }
                ]
            },
            "request": {
                "method": "PUT",
                "url": "MeasureReport/result-evaluatedresources-condition-in-ra"
            }
        },
        {
            "resource": {
                "resourceType": "Patient",
                "id": "result-evaluatedresources-condition-in-ra",
                "meta": {
                    "profile": [
                        "http://hl7.org/fhir/us/core/StructureDefinition/us-core-patient"
                    ]
                },
                "extension": [
                    {
                        "url": "http://hl7.org/fhir/us/core/StructureDefinition/us-core-birthsex",
                        "valueCode": "F"
                    },
                    {
                        "url": "http://hl7.org/fhir/us/core/StructureDefinition/us-core-race",
                        "extension": [
                            {
                                "url": "ombCategory",
                                "valueCoding": {
                                    "system": "urn:oid:2.16.840.1.113883.6.238",
                                    "code": "2106-3",
                                    "display": "White"
                                }
                            },
                            {
                                "url": "text",
                                "valueString": "White"
                            }
                        ]
                    },
                    {
                        "url": "http://hl7.org/fhir/us/core/StructureDefinition/us-core-ethnicity",
                        "extension": [
                            {
                                "url": "ombCategory",
                                "valueCoding": {
                                    "system": "urn:oid:2.16.840.1.113883.6.238",
                                    "code": "2186-5",
                                    "display": "Not Hispanic or Latino"
                                }
                            },
                            {
                                "url": "text",
                                "valueString": "Not Hispanic or Latino"
                            }
                        ]
                    }
                ],
                "identifier": [
                    {
                        "use": "usual",
                        "type": {
                            "coding": [
                                {
                                    "system": "http://terminology.hl7.org/CodeSystem/v2-0203",
                                    "code": "MR",
                                    "display": "Medical record number"
                                }
                            ]
                        },
                        "system": "http://hospital.davinci.org",
                        "value": "123456"
                    }
                ],
                "active": true,
                "name": [
                    {
                        "use": "official",
                        "family": "Result",
                        "given": [
                            "EvaluatedResource-Condition-In-RA"
                        ]
                    }
                ],
                "gender": "female",
                "birthDate": "1975-01-16",
                "deceasedBoolean": false,
                "address": [
                    {
                        "use": "home",
                        "line": [
                            "2222 Home Street"
                        ],
                        "city": "Ann Arbor",
                        "state": "MI",
                        "postalCode": "99999",
                        "country": "USA"
                    }
                ],
                "maritalStatus": {
                    "coding": [
                        {
                            "system": "http://terminology.hl7.org/CodeSystem/v3-MaritalStatus",
                            "code": "M",
                            "display": "Married"
                        }
                    ]
                },
                "communication": [
                    {
                        "language": {
                            "coding": [
                                {
                                    "system": "urn:ietf:bcp:47",
                                    "code": "en-US",
                                    "display": "English (Region=United States)"
                                }
                            ]
                        },
                        "preferred": true
                    }
                ]
            },
            "request": {
                "method": "PUT",
                "url": "Patient/result-evaluatedresources-condition-in-ra"
            }
        },
        {
            "resource": {
                "resourceType": "Encounter",
                "id": "result-evaluatedresources-condition-in-ra-01",
                "meta": {
                    "extension": [
                        {
                            "url": "http://hl7.org/fhir/StructureDefinition/instance-name",
                            "valueString": "Encounter with Dr Howell on 20210714 for Patient 03"
                        },
                        {
                            "url": "http://hl7.org/fhir/StructureDefinition/instance-description",
                            "valueMarkdown": "This is Encounter with Dr Howell on 20210714 for Patient 03."
                        }
                    ],
                    "lastUpdated": "2021-07-14T11:56:57.250-04:00",
                    "profile": [
                        "http://hl7.org/fhir/us/core/StructureDefinition/us-core-encounter"
                    ]
                },
                "status": "finished",
                "class": {
                    "system": "http://terminology.hl7.org/CodeSystem/v3-ActCode",
                    "code": "AMB",
                    "display": "ambulatory"
                },
                "type": [
                    {
                        "coding": [
                            {
                                "system": "http://www.ama-assn.org/go/cpt",
                                "code": "99215"
                            }
                        ],
                        "text": "Office Visit, High Complexity"
                    }
                ],
                "subject": {
                    "reference": "Patient/result-evaluatedresources-condition-in-ra"
                },
                "participant": [
                    {
                        "individual": {
                            "reference": "Practitioner/result-evaluatedresources-condition-in-ra"
                        }
                    }
                ],
                "diagnosis": [
                    {
                        "condition": {
                            "reference": "Condition/result-evaluatedresources-condition-in-ra-01"
                        }
                    }
                ],
                "period": {
                    "start": "2021-01-31",
                    "end": "2021-01-31"
                },
                "serviceProvider": {
                    "reference": "Organization/result-evaluatedresources-condition-in-ra"
                }
            },
            "request": {
                "method": "PUT",
                "url": "Encounter/result-evaluatedresources-condition-in-ra-01"
            }
        },
        {
            "resource": {
                "resourceType": "Condition",
                "id": "result-evaluatedresources-condition-in-ra-01",
                "meta": {
                    "profile": [
                        "http://hl7.org/fhir/us/core/StructureDefinition/us-core-condition"
                    ]
                },
                "clinicalStatus": {
                    "coding": [
                        {
                            "system": "http://terminology.hl7.org/CodeSystem/condition-clinical",
                            "code": "active",
                            "display": "Active"
                        }
                    ],
                    "text": "Active"
                },
                "verificationStatus": {
                    "coding": [
                        {
                            "system": "http://terminology.hl7.org/CodeSystem/condition-ver-status",
                            "code": "confirmed",
                            "display": "Confirmed"
                        }
                    ],
                    "text": "Confirmed"
                },
                "category": [
                    {
                        "coding": [
                            {
                                "system": "http://terminology.hl7.org/CodeSystem/condition-category",
                                "code": "encounter-diagnosis",
                                "display": "Encounter Diagnosis"
                            }
                        ],
                        "text": "Encounter Diagnosis"
                    }
                ],
                "code": {
                    "coding": [
                        {
                            "system": "http://hl7.org/fhir/sid/icd-10-cm",
                            "code": "E08.29",
                            "display": "Diabetes mellitus due to underlying condition with other diabetic kidney complication"
                        }
                    ],
                    "text": "E08.29: Diabetes mellitus due to underlying condition with other diabetic kidney complication"
                },
                "subject": {
                    "reference": "Patient/result-evaluatedresources-condition-in-ra"
                },
                "onsetDateTime": "2021-01-31"
            },
            "request": {
                "method": "PUT",
                "url": "Condition/result-evaluatedresources-condition-in-ra-01"
            }
        },
        {
            "resource": {
                "resourceType": "Encounter",
                "id": "result-evaluatedresources-condition-in-ra-02",
                "meta": {
                    "extension": [
                        {
                            "url": "http://hl7.org/fhir/StructureDefinition/instance-name",
                            "valueString": "Encounter with Dr Howell on 20210714 for Patient 01"
                        },
                        {
                            "url": "http://hl7.org/fhir/StructureDefinition/instance-description",
                            "valueMarkdown": "This is Encounter with Dr Howell on 20210714 for Patient 01."
                        }
                    ],
                    "lastUpdated": "2019-03-13T11:56:57.250-04:00",
                    "profile": [
                        "http://hl7.org/fhir/us/core/StructureDefinition/us-core-encounter"
                    ]
                },
                "status": "finished",
                "class": {
                    "system": "http://terminology.hl7.org/CodeSystem/v3-ActCode",
                    "code": "AMB",
                    "display": "ambulatory"
                },
                "type": [
                    {
                        "coding": [
                            {
                                "system": "http://www.ama-assn.org/go/cpt",
                                "code": "99215"
                            }
                        ],
                        "text": "Office Visit, High Complexity"
                    }
                ],
                "subject": {
                    "reference": "Patient/result-evaluatedresources-condition-in-ra"
                },
                "participant": [
                    {
                        "individual": {
                            "reference": "Practitioner/result-evaluatedresources-condition-in-ra"
                        }
                    }
                ],
                "diagnosis": [
                    {
                        "condition": {
                            "reference": "Condition/result-evaluatedresources-condition-in-ra-02"
                        }
                    }
                ],
                "period": {
                    "start": "2019-02-10",
                    "end": "2019-02-10"
                },
                "serviceProvider": {
                    "reference": "Organization/result-evaluatedresources-condition-in-ra"
                }
            },
            "request": {
                "method": "PUT",
                "url": "Encounter/result-evaluatedresources-condition-in-ra-02"
            }
        },
        {
            "resource": {
                "resourceType": "Condition",
                "id": "result-evaluatedresources-condition-in-ra-02",
                "meta": {
                    "profile": [
                        "http://hl7.org/fhir/us/core/StructureDefinition/us-core-condition"
                    ]
                },
                "clinicalStatus": {
                    "coding": [
                        {
                            "system": "http://terminology.hl7.org/CodeSystem/condition-clinical",
                            "code": "active",
                            "display": "Active"
                        }
                    ],
                    "text": "Active"
                },
                "verificationStatus": {
                    "coding": [
                        {
                            "system": "http://terminology.hl7.org/CodeSystem/condition-ver-status",
                            "code": "confirmed",
                            "display": "Confirmed"
                        }
                    ],
                    "text": "Confirmed"
                },
                "category": [
                    {
                        "coding": [
                            {
                                "system": "http://terminology.hl7.org/CodeSystem/condition-category",
                                "code": "encounter-diagnosis",
                                "display": "Encounter Diagnosis"
                            }
                        ],
                        "text": "Encounter Diagnosis"
                    }
                ],
                "code": {
                    "coding": [
                        {
                            "system": "http://hl7.org/fhir/sid/icd-10-cm",
                            "code": "E08.29",
                            "display": "Diabetes mellitus due to underlying condition with other diabetic kidney complication"
                        }
                    ],
                    "text": "E08.29: Diabetes mellitus due to underlying condition with other diabetic kidney complication"
                },
                "subject": {
                    "reference": "Patient/result-evaluatedresources-condition-in-ra"
                },
                "onsetDateTime": "2019-02-10"
            },
            "request": {
                "method": "PUT",
                "url": "Condition/result-evaluatedresources-condition-in-ra-02"
            }
        },
        {
            "resource": {
                "resourceType": "Encounter",
                "id": "result-evaluatedresources-condition-in-ra-out",
                "meta": {
                    "extension": [
                        {
                            "url": "http://hl7.org/fhir/StructureDefinition/instance-name",
                            "valueString": "Encounter with Dr Smith on 20210810 for Patient 01"
                        },
                        {
                            "url": "http://hl7.org/fhir/StructureDefinition/instance-description",
                            "valueMarkdown": "This is Encounter with Dr Smith on 20210810 for Patient 01."
                        }
                    ],
                    "lastUpdated": "2019-03-13T11:56:57.250-04:00",
                    "profile": [
                        "http://hl7.org/fhir/us/core/StructureDefinition/us-core-encounter"
                    ]
                },
                "status": "finished",
                "class": {
                    "system": "http://terminology.hl7.org/CodeSystem/v3-ActCode",
                    "code": "AMB",
                    "display": "ambulatory"
                },
                "type": [
                    {
                        "coding": [
                            {
                                "system": "http://www.ama-assn.org/go/cpt",
                                "code": "99215"
                            }
                        ],
                        "text": "Office Visit, High Complexity"
                    }
                ],
                "subject": {
                    "reference": "Patient/result-evaluatedresources-condition-in-ra"
                },
                "participant": [
                    {
                        "individual": {
                            "reference": "Practitioner/result-evaluatedresources-condition-in-ra"
                        }
                    }
                ],
                "diagnosis": [
                    {
                        "condition": {
                            "reference": "Condition/result-evaluatedresources-condition-in-ra-out"
                        }
                    }
                ],
                "period": {
                    "start": "2021-08-10",
                    "end": "2021-08-10"
                },
                "serviceProvider": {
                    "reference": "Organization/result-evaluatedresources-condition-in-ra"
                }
            },
            "request": {
                "method": "PUT",
                "url": "Encounter/result-evaluatedresources-condition-in-ra-out"
            }
        },
        {
            "resource": {
                "resourceType": "Condition",
                "id": "result-evaluatedresources-condition-in-ra-out",
                "meta": {
                    "profile": [
                        "http://hl7.org/fhir/us/core/StructureDefinition/us-core-condition"
                    ]
                },
                "clinicalStatus": {
                    "coding": [
                        {
                            "system": "http://terminology.hl7.org/CodeSystem/condition-clinical",
                            "code": "active",
                            "display": "Active"
                        }
                    ],
                    "text": "Active"
                },
                "verificationStatus": {
                    "coding": [
                        {
                            "system": "http://terminology.hl7.org/CodeSystem/condition-ver-status",
                            "code": "confirmed",
                            "display": "Confirmed"
                        }
                    ],
                    "text": "Confirmed"
                },
                "category": [
                    {
                        "coding": [
                            {
                                "system": "http://terminology.hl7.org/CodeSystem/condition-category",
                                "code": "encounter-diagnosis",
                                "display": "Encounter Diagnosis"
                            }
                        ],
                        "text": "Encounter Diagnosis"
                    }
                ],
                "code": {
                    "coding": [
                        {
                            "system": "http://hl7.org/fhir/sid/icd-10-cm",
                            "code": "J10.1",
                            "display": "Influenza with other respiratory manifestations, seasonal influenza virus identified"
                        }
                    ],
                    "text": "J10.1: Influenza with other respiratory manifestations, seasonal influenza virus identified"
                },
                "subject": {
                    "reference": "Patient/result-evaluatedresources-condition-in-ra"
                },
                "onsetDateTime": "2021-09-26"
            },
            "request": {
                "method": "PUT",
                "url": "Condition/result-evaluatedresources-condition-in-ra-out"
            }
        },
        {
            "resource": {
                "resourceType": "Observation",
                "id": "result-evaluatedresources-condition-in-ra-out",
                "meta": {
                    "extension": [
                        {
                            "url": "http://hl7.org/fhir/StructureDefinition/instance-name",
                            "valueString": "Sodium [Moles/volume] in Serum or Plasma for Pat01"
                        },
                        {
                            "url": "http://hl7.org/fhir/StructureDefinition/instance-description",
                            "valueMarkdown": "Sodium [Moles/volume] in Serum or Plasma for Pat01*."
                        }
                    ],
                    "profile": [
                        "http://hl7.org/fhir/us/core/StructureDefinition/us-core-observation-lab"
                    ]
                },
                "status": "final",
                "category": [
                    {
                        "coding": [
                            {
                                "system": "http://terminology.hl7.org/CodeSystem/observation-category",
                                "code": "laboratory",
                                "display": "Laboratory"
                            }
                        ],
                        "text": "Laboratory"
                    }
                ],
                "code": {
                    "coding": [
                        {
                            "system": "http://loinc.org",
                            "code": "2951-2",
                            "display": "Sodium [Moles/volume] in Serum or Plasma"
                        }
                    ],
                    "text": "Sodium [Moles/volume] in Serum or Plasma"
                },
                "subject": {
                    "reference": "Patient/result-evaluatedresources-condition-in-ra",
                    "display": "Eve Everywoman"
                },
                "effectiveDateTime": "2019-06-17",
                "valueQuantity": {
                    "value": 137,
                    "unit": "mmol/L",
                    "system": "http://unitsofmeasure.org"
                },
                "referenceRange": [
                    {
                        "low": {
                            "value": 134,
                            "unit": "mmol/L",
                            "system": "http://unitsofmeasure.org",
                            "code": "mmol/L"
                        },
                        "high": {
                            "value": 144,
                            "unit": "mmol/L",
                            "system": "http://unitsofmeasure.org",
                            "code": "mmol/L"
                        },
                        "type": {
                            "coding": [
                                {
                                    "system": "http://terminology.hl7.org/CodeSystem/referencerange-meaning",
                                    "code": "normal",
                                    "display": "Normal Range"
                                }
                            ],
                            "text": "Normal Range"
                        }
                    }
                ]
            },
            "request": {
                "method": "PUT",
                "url": "Observation/result-evaluatedresources-condition-in-ra-out"
            }
        },
        {
            "resource": {
                "resourceType": "Bundle",
                "id": "result-profile-in-ra",
                "meta": {
                    "profile": [
                        "http://hl7.org/fhir/us/davinci-ra/StructureDefinition/ra-bundle"
                    ]
                },
                "identifier": {
                    "system": "urn:ietf:rfc:3986",
                    "value": "urn:uuid:53200545-98fd-42bb-91f8-02bc4c99e592"
                },
                "type": "document",
                "timestamp": "2022-05-01T13:02:53+00:00",
                "entry": [
                    {
                        "fullUrl": "http://example.org/fhir/ra/Composition/result-profile-in-ra",
                        "resource": {
                            "resourceType": "Composition",
                            "id": "result-profile-in-ra",
                            "meta": {
                                "profile": [
                                    "http://hl7.org/fhir/us/davinci-ra/StructureDefinition/ra-composition"
                                ]
                            },
                            "status": "final",
                            "type": {
                                "coding": [
                                    {
                                        "system": "http://loinc.org",
                                        "code": "96315-7",
                                        "display": "Gaps in care report"
                                    }
                                ]
                            },
                            "subject": {
                                "reference": "Patient/result-profile-in-ra"
                            },
                            "date": "2022-05-01T13:02:53+00:00",
                            "author": [
                                {
                                    "reference": "Organization/result-profile-in-ra-author"
                                }
                            ],
                            "title": "Risk Adjustment Bundle for patient ra-result-profile-in-patient",
                            "section": [
                                {
                                    "title": "Risk Adjustment Report",
                                    "focus": {
                                        "reference": "MeasureReport/result-profile-in-ra"
                                    },
                                    "entry": [
                                        {
                                            "reference": "DetectedIssue/result-profile-in-ra"
                                        }
                                    ]
                                }
                            ]
                        }
                    },
                    {
                        "fullUrl": "http://example.org/fhir/ra/MeasureReport/result-profile-in-ra",
                        "resource": {
                            "resourceType": "MeasureReport",
                            "id": "result-profile-in-ra",
                            "meta": {
                                "profile": [
                                    "http://hl7.org/fhir/us/davinci-ra/StructureDefinition/ra-measurereport"
                                ]
                            },
                            "extension": [
                                {
                                    "url": "http://hl7.org/fhir/us/davinci-ra/StructureDefinition/ra-clinicalDataCollectionDeadline",
                                    "valueDate": "2021-12-01"
                                }
                            ],
                            "status": "complete",
                            "type": "individual",
                            "measure": "https://build.fhir.org/ig/HL7/davinci-ra/Measure-RAModelExample01",
                            "subject": {
                                "reference": "Patient/result-profile-in-ra"
                            },
                            "date": "2021-10-18",
                            "reporter": {
                                "reference": "Organization/result-profile-in-ra-reporter"
                            },
                            "period": {
                                "start": "2021-01-01",
                                "end": "2021-09-30"
                            },
                            "group": [
                                {
                                    "id": "group-001",
                                    "code": {
                                        "coding": [
                                            {
                                                "system": "http://terminology.hl7.org/CodeSystem/cmshcc",
                                                "version": "24",
                                                "code": "53",
                                                "display": "Major Depressive, Bipolar, and Paranoid Disorders"
                                            }
                                        ],
                                        "text": "HCC 59: Major Depressive, Bipolar, and Paranoid Disorders"
                                    },
                                    "extension": [
                                        {
                                            "url": "http://hl7.org/fhir/us/davinci-ra/StructureDefinition/ra-suspectType",
                                            "valueCodeableConcept": {
                                                "coding": [
                                                    {
                                                        "code": "historic",
                                                        "system": "http://hl7.org/fhir/us/davinci-ra/CodeSystem/suspect-type"
                                                    }
                                                ]
                                            }
                                        },
                                        {
                                            "url": "http://hl7.org/fhir/us/davinci-ra/StructureDefinition/ra-evidenceStatus",
                                            "valueCodeableConcept": {
                                                "coding": [
                                                    {
                                                        "code": "open-gap",
                                                        "system": "http://hl7.org/fhir/us/davinci-ra/CodeSystem/evidence-status"
                                                    }
                                                ]
                                            }
                                        },
                                        {
                                            "url": "http://hl7.org/fhir/us/davinci-ra/StructureDefinition/ra-evidenceStatusDate",
                                            "valueDate": "2020-07-15"
                                        },
                                        {
                                            "url": "http://hl7.org/fhir/us/davinci-ra/StructureDefinition/ra-hierarchicalStatus",
                                            "valueCodeableConcept": {
                                                "coding": [
                                                    {
                                                        "code": "applied-not-superseded",
                                                        "system": "http://hl7.org/fhir/us/davinci-ra/CodeSystem/hierarchical-status"
                                                    }
                                                ]
                                            }
                                        }
                                    ]
                                }
                            ],
                            "evaluatedResource": [
                                {
                                    "extension": [
                                        {
                                            "url": "http://hl7.org/fhir/us/davinci-ra/StructureDefinition/ra-groupReference",
                                            "valueString": "group-001"
                                        }
                                    ],
                                    "reference": "Patient/result-profile-in-ra"
                                },
                                {
                                    "extension": [
                                        {
                                            "url": "http://hl7.org/fhir/us/davinci-ra/StructureDefinition/ra-groupReference",
                                            "valueString": "group-001"
                                        }
                                    ],
                                    "reference": "Condition/result-profile-in-ra"
                                },
                                {
                                    "extension": [
                                        {
                                            "url": "http://hl7.org/fhir/us/davinci-ra/StructureDefinition/ra-groupReference",
                                            "valueString": "group-001"
                                        }
                                    ],
                                    "reference": "Encounter/result-profile-in-ra"
                                }
                            ]
                        }
                    },
                    {
                        "fullUrl": "http://example.org/fhir/gaps/DetectedIssue/result-profile-in-ra",
                        "resource": {
                            "resourceType": "DetectedIssue",
                            "id": "result-profile-in-ra",
                            "meta": {
                                "profile": [
                                    "http://hl7.org/fhir/us/davinci-ra/StructureDefinition/ra-detectedissue"
                                ]
                            },
                            "modifierExtension": [
                                {
                                    "url": "http://hl7.org/fhir/us/davinci-ra/StructureDefinition/extension-codingGapType",
                                    "valueCodeableConcept": {
                                        "coding": [
                                            {
                                                "system": "http://hl7.org/fhir/us/davinci-ra/ValueSet/coding-gap-type",
                                                "code": "gap-closure-request"
                                            }
                                        ]
                                    }
                                }
                            ],
                            "extension": [
                                {
                                    "url": "http://hl7.org/fhir/us/davinci-ra/StructureDefinition/ra-groupReference",
                                    "valueString": "group-001"
                                }
                            ],
                            "status": "final",
                            "code": {
                                "coding": [
                                    {
                                        "system": "http://terminology.hl7.org/CodeSystem/v3-ActCode",
                                        "code": "CODINGGAP",
                                        "display": "Coding Gaps"
                                    }
                                ]
                            },
                            "patient": {
                                "reference": "Patient/result-profile-in-ra"
                            },
                            "evidence": [
                                {
                                    "detail": [
                                        {
                                            "reference": "MeasureReport/result-profile-in-ra"
                                        }
                                    ]
                                }
                            ]
                        }
                    },
                    {
                        "fullUrl": "http://example.org/fhir/ra/Patient/result-profile-in-ra",
                        "resource": {
                            "resourceType": "Patient",
                            "id": "result-profile-in-ra",
                            "meta": {
                                "profile": [
                                    "http://hl7.org/fhir/us/core/StructureDefinition/us-core-patient"
                                ]
                            },
                            "extension": [
                                {
                                    "extension": [
                                        {
                                            "url": "ombCategory",
                                            "valueCoding": {
                                                "system": "urn:oid:2.16.840.1.113883.6.238",
                                                "code": "2028-9",
                                                "display": "Asian"
                                            }
                                        },
                                        {
                                            "url": "text",
                                            "valueString": "Asian"
                                        }
                                    ],
                                    "url": "http://hl7.org/fhir/us/core/StructureDefinition/us-core-race"
                                },
                                {
                                    "extension": [
                                        {
                                            "url": "ombCategory",
                                            "valueCoding": {
                                                "system": "urn:oid:2.16.840.1.113883.6.238",
                                                "code": "2135-2",
                                                "display": "Hispanic or Latino"
                                            }
                                        },
                                        {
                                            "url": "text",
                                            "valueString": "Hispanic or Latino"
                                        }
                                    ],
                                    "url": "http://hl7.org/fhir/us/core/StructureDefinition/us-core-ethnicity"
                                }
                            ],
                            "identifier": [
                                {
                                    "use": "usual",
                                    "type": {
                                        "coding": [
                                            {
                                                "system": "http://terminology.hl7.org/CodeSystem/v2-0203",
                                                "code": "MR",
                                                "display": "Medical Record Number"
                                            }
                                        ]
                                    },
                                    "system": "http://hospital.smarthealthit.org",
                                    "value": "999995992"
                                }
                            ],
                            "name": [
                                {
                                    "family": "Result",
                                    "given": [
                                        "ProfileIn"
                                    ]
                                }
                            ],
                            "gender": "female",
                            "birthDate": "1965-01-01"
                        }
                    },
                    {
                        "fullUrl": "http://example.org/fhir/ra/Condition/result-profile-in-ra",
                        "resource": {
                            "resourceType": "Condition",
                            "id": "result-profile-in-ra",
                            "meta": {
                                "profile": [
                                    "http://hl7.org/fhir/us/core/StructureDefinition/us-core-condition"
                                ]
                            },
                            "clinicalStatus": {
                                "coding": [
                                    {
                                        "system": "http://terminology.hl7.org/CodeSystem/condition-clinical",
                                        "code": "active",
                                        "display": "Active"
                                    }
                                ],
                                "text": "Active"
                            },
                            "verificationStatus": {
                                "coding": [
                                    {
                                        "system": "http://terminology.hl7.org/CodeSystem/condition-ver-status",
                                        "code": "confirmed",
                                        "display": "Confirmed"
                                    }
                                ],
                                "text": "Confirmed"
                            },
                            "category": [
                                {
                                    "coding": [
                                        {
                                            "system": "http://terminology.hl7.org/CodeSystem/condition-category",
                                            "code": "encounter-diagnosis",
                                            "display": "Encounter Diagnosis"
                                        }
                                    ],
                                    "text": "Problem"
                                }
                            ],
                            "code": {
                                "coding": [
                                    {
                                        "system": "http://hl7.org/fhir/sid/icd-10-cm",
                                        "code": "F31.61",
                                        "display": "Bipolar disorder, current episode mixed, mild"
                                    }
                                ],
                                "text": "Bipolar disorder, current episode mixed, mild"
                            },
                            "subject": {
                                "reference": "Patient/result-profile-in-ra"
                            },
                            "onsetDateTime": "2017-02-03"
                        }
                    },
                    {
                        "fullUrl": "http://example.org/fhir/ra/Encounter/result-profile-in-ra",
                        "resource": {
                            "resourceType": "Encounter",
                            "id": "result-profile-in-ra",
                            "meta": {
                                "extension": [
                                    {
                                        "url": "http://hl7.org/fhir/StructureDefinition/instance-name",
                                        "valueString": "Encounter with Dr Howell on 20210714 for Patient 03"
                                    },
                                    {
                                        "url": "http://hl7.org/fhir/StructureDefinition/instance-description",
                                        "valueMarkdown": "This is Encounter with Dr Howell on 20210714 for Patient 03."
                                    }
                                ],
                                "lastUpdated": "2021-07-14T11:56:57.250-04:00",
                                "profile": [
                                    "http://hl7.org/fhir/us/core/StructureDefinition/us-core-encounter"
                                ]
                            },
                            "status": "finished",
                            "class": {
                                "system": "http://terminology.hl7.org/CodeSystem/v3-ActCode",
                                "code": "AMB",
                                "display": "ambulatory"
                            },
                            "type": [
                                {
                                    "coding": [
                                        {
                                            "system": "http://www.ama-assn.org/go/cpt",
                                            "code": "99215"
                                        }
                                    ],
                                    "text": "Office Visit, High Complexity"
                                }
                            ],
                            "subject": {
                                "reference": "Patient/result-profile-in-ra"
                            },
                            "participant": [
                                {
                                    "individual": {
                                        "reference": "Practitioner/result-profile-in-ra"
                                    }
                                }
                            ],
                            "diagnosis": [
                                {
                                    "condition": {
                                        "reference": "Condition/result-profile-in-ra"
                                    }
                                }
                            ],
                            "period": {
                                "start": "2017-02-03",
                                "end": "2017-02-03"
                            },
                            "serviceProvider": {
                                "reference": "Organization/result-profile-in-ra"
                            }
                        }
                    }
                ]
            },
            "request": {
                "method": "PUT",
                "url": "Bundle/result-profile-in-ra"
            }
        }
    ]
}