{
    "resourceType": "Bundle",
    "id": "report-results",
    "type": "transaction",
    "entry": [
        {
            "resource": {
                "resourceType": "MeasureReport",
                "id": "result-evaluatedresources-multiple-in-ra",
                "meta": {
                    "profile": [
                        "http://hl7.org/fhir/us/davinci-ra/StructureDefinition/ra-measurereport"
                    ]
                },
                "extension": [
                    {
                        "url": "http://hl7.org/fhir/us/davinci-ra/StructureDefinition/ra-clinicalDataCollectionDeadline",
                        "valueDate": "2021-12-01"
                    }
                ],
                "status": "complete",
                "type": "individual",
                "measure": "https://build.fhir.org/ig/HL7/davinci-ra/Measure-RAModelExample01",
                "subject": {
                    "reference": "Patient/result-evaluatedresources-multiple-in-ra"
                },
                "date": "2021-10-18",
                "reporter": {
                    "reference": "Organization/result-evaluatedresources-multiple-in-ra-reporter"
                },
                "period": {
                    "start": "2021-01-01",
                    "end": "2021-09-30"
                },
                "group": [
                    {
                        "id": "group-001",
                        "code": {
                            "coding": [
                                {
                                    "system": "http://terminology.hl7.org/CodeSystem/cmshcc",
                                    "version": "24",
                                    "code": "18",
                                    "display": "Diabetes with Chronic Complications"
                                }
                            ],
                            "text": "HCC 18: Diabetes with Chronic Complications"
                        },
                        "extension": [
                            {
                                "url": "http://hl7.org/fhir/us/davinci-ra/StructureDefinition/ra-suspectType",
                                "valueCodeableConcept": {
                                    "coding": [
                                        {
                                            "code": "historic",
                                            "system": "http://hl7.org/fhir/us/davinci-ra/CodeSystem/suspect-type"
                                        }
                                    ]
                                }
                            },
                            {
                                "url": "http://hl7.org/fhir/us/davinci-ra/StructureDefinition/ra-evidenceStatus",
                                "valueCodeableConcept": {
                                    "coding": [
                                        {
                                            "code": "closed-gap",
                                            "system": "http://hl7.org/fhir/us/davinci-ra/CodeSystem/evidence-status"
                                        }
                                    ]
                                }
                            },
                            {
                                "url": "http://hl7.org/fhir/us/davinci-ra/StructureDefinition/ra-evidenceStatusDate",
                                "valueDate": "2021-04-01"
                            },
                            {
                                "url": "http://hl7.org/fhir/us/davinci-ra/StructureDefinition/ra-hierarchicalStatus",
                                "valueCodeableConcept": {
                                    "coding": [
                                        {
                                            "code": "applied-not-superseded",
                                            "system": "http://hl7.org/fhir/us/davinci-ra/CodeSystem/hierarchical-status"
                                        }
                                    ]
                                }
                            }
                        ]
                    }
                ],
                "evaluatedResource": [
                    {
                        "extension": [
                            {
                                "url": "http://hl7.org/fhir/us/davinci-ra/StructureDefinition/ra-groupReference",
                                "valueString": "group-001"
                            }
                        ],
                        "reference": "Condition/result-evaluatedresources-multiple-in-ra-01"
                    },
                    {
                        "extension": [
                            {
                                "url": "http://hl7.org/fhir/us/davinci-ra/StructureDefinition/ra-groupReference",
                                "valueString": "group-001"
                            }
                        ],
                        "reference": "Condition/result-evaluatedresources-multiple-in-ra-02"
                    },
                    {
                        "extension": [
                            {
                                "url": "http://hl7.org/fhir/us/davinci-ra/StructureDefinition/ra-groupReference",
                                "valueString": "group-001"
                            }
                        ],
                        "reference": "Encounter/result-evaluatedresources-multiple-in-ra-01"
                    },
                    {
                        "extension": [
                            {
                                "url": "http://hl7.org/fhir/us/davinci-ra/StructureDefinition/ra-groupReference",
                                "valueString": "group-001"
                            }
                        ],
                        "reference": "Encounter/result-evaluatedresources-multiple-in-ra-02"
                    },
                    {
                        "extension": [
                            {
                                "url": "http://hl7.org/fhir/us/davinci-ra/StructureDefinition/ra-groupReference",
                                "valueString": "group-001"
                            }
                        ],
                        "reference": "Patient/result-evaluatedresources-multiple-in-ra"
                    },
                    {
                        "extension": [
                            {
                                "url": "http://hl7.org/fhir/us/davinci-ra/StructureDefinition/ra-groupReference",
                                "valueString": "group-001"
                            }
                        ],
                        "reference": "Condition/result-evaluatedresources-multiple-in-ra-01"
                    }
                ]
            },
            "request": {
                "method": "PUT",
                "url": "MeasureReport/result-evaluatedresources-multiple-in-ra"
            }
        },
        {
            "resource": {
                "resourceType": "Patient",
                "id": "result-evaluatedresources-multiple-in-ra",
                "meta": {
                    "profile": [
                        "http://hl7.org/fhir/us/core/StructureDefinition/us-core-patient"
                    ]
                },
                "extension": [
                    {
                        "url": "http://hl7.org/fhir/us/core/StructureDefinition/us-core-birthsex",
                        "valueCode": "F"
                    },
                    {
                        "url": "http://hl7.org/fhir/us/core/StructureDefinition/us-core-race",
                        "extension": [
                            {
                                "url": "ombCategory",
                                "valueCoding": {
                                    "system": "urn:oid:2.16.840.1.113883.6.238",
                                    "code": "2106-3",
                                    "display": "White"
                                }
                            },
                            {
                                "url": "text",
                                "valueString": "White"
                            }
                        ]
                    },
                    {
                        "url": "http://hl7.org/fhir/us/core/StructureDefinition/us-core-ethnicity",
                        "extension": [
                            {
                                "url": "ombCategory",
                                "valueCoding": {
                                    "system": "urn:oid:2.16.840.1.113883.6.238",
                                    "code": "2186-5",
                                    "display": "Not Hispanic or Latino"
                                }
                            },
                            {
                                "url": "text",
                                "valueString": "Not Hispanic or Latino"
                            }
                        ]
                    }
                ],
                "identifier": [
                    {
                        "use": "usual",
                        "type": {
                            "coding": [
                                {
                                    "system": "http://terminology.hl7.org/CodeSystem/v2-0203",
                                    "code": "MR",
                                    "display": "Medical record number"
                                }
                            ]
                        },
                        "system": "http://hospital.davinci.org",
                        "value": "1234569"
                    }
                ],
                "active": true,
                "name": [
                    {
                        "use": "official",
                        "family": "Result",
                        "given": [
                            "evaluatedresources-multiple-in-ra"
                        ]
                    }
                ],
                "gender": "female",
                "birthDate": "1975-01-16",
                "deceasedBoolean": false,
                "address": [
                    {
                        "use": "home",
                        "line": [
                            "2222 Home Street"
                        ],
                        "city": "Ann Arbor",
                        "state": "MI",
                        "postalCode": "99999",
                        "country": "USA"
                    }
                ],
                "maritalStatus": {
                    "coding": [
                        {
                            "system": "http://terminology.hl7.org/CodeSystem/v3-MaritalStatus",
                            "code": "M",
                            "display": "Married"
                        }
                    ]
                },
                "communication": [
                    {
                        "language": {
                            "coding": [
                                {
                                    "system": "urn:ietf:bcp:47",
                                    "code": "en-US",
                                    "display": "English (Region=United States)"
                                }
                            ]
                        },
                        "preferred": true
                    }
                ]
            },
            "request": {
                "method": "PUT",
                "url": "Patient/result-evaluatedresources-multiple-in-ra"
            }
        },
        {
            "resource": {
                "resourceType": "Encounter",
                "id": "result-evaluatedresources-multiple-in-ra-01",
                "meta": {
                    "extension": [
                        {
                            "url": "http://hl7.org/fhir/StructureDefinition/instance-name",
                            "valueString": "Encounter with Dr Howell on 20210714 for Patient 03"
                        },
                        {
                            "url": "http://hl7.org/fhir/StructureDefinition/instance-description",
                            "valueMarkdown": "This is Encounter with Dr Howell on 20210714 for Patient 03."
                        }
                    ],
                    "lastUpdated": "2021-07-14T11:56:57.250-04:00",
                    "profile": [
                        "http://hl7.org/fhir/us/core/StructureDefinition/us-core-encounter"
                    ]
                },
                "status": "finished",
                "class": {
                    "system": "http://terminology.hl7.org/CodeSystem/v3-ActCode",
                    "code": "AMB",
                    "display": "ambulatory"
                },
                "type": [
                    {
                        "coding": [
                            {
                                "system": "http://www.ama-assn.org/go/cpt",
                                "code": "99215"
                            }
                        ],
                        "text": "Office Visit, High Complexity"
                    }
                ],
                "subject": {
                    "reference": "Patient/result-evaluatedresources-multiple-in-ra"
                },
                "participant": [
                    {
                        "individual": {
                            "reference": "Practitioner/result-evaluatedresources-multiple-in-ra"
                        }
                    }
                ],
                "diagnosis": [
                    {
                        "condition": {
                            "reference": "Condition/result-evaluatedresources-multiple-in-ra-01"
                        }
                    }
                ],
                "period": {
                    "start": "2021-01-31",
                    "end": "2021-01-31"
                },
                "serviceProvider": {
                    "reference": "Organization/result-evaluatedresources-multiple-in-ra"
                }
            },
            "request": {
                "method": "PUT",
                "url": "Encounter/result-evaluatedresources-multiple-in-ra-01"
            }
        },
        {
            "resource": {
                "resourceType": "Condition",
                "id": "result-evaluatedresources-multiple-in-ra-01",
                "meta": {
                    "profile": [
                        "http://hl7.org/fhir/us/core/StructureDefinition/us-core-condition"
                    ]
                },
                "clinicalStatus": {
                    "coding": [
                        {
                            "system": "http://terminology.hl7.org/CodeSystem/condition-clinical",
                            "code": "active",
                            "display": "Active"
                        }
                    ],
                    "text": "Active"
                },
                "verificationStatus": {
                    "coding": [
                        {
                            "system": "http://terminology.hl7.org/CodeSystem/condition-ver-status",
                            "code": "confirmed",
                            "display": "Confirmed"
                        }
                    ],
                    "text": "Confirmed"
                },
                "category": [
                    {
                        "coding": [
                            {
                                "system": "http://terminology.hl7.org/CodeSystem/condition-category",
                                "code": "encounter-diagnosis",
                                "display": "Encounter Diagnosis"
                            }
                        ],
                        "text": "Encounter Diagnosis"
                    }
                ],
                "code": {
                    "coding": [
                        {
                            "system": "http://hl7.org/fhir/sid/icd-10-cm",
                            "code": "E08.29",
                            "display": "Diabetes mellitus due to underlying condition with other diabetic kidney complication"
                        }
                    ],
                    "text": "E08.29: Diabetes mellitus due to underlying condition with other diabetic kidney complication"
                },
                "subject": {
                    "reference": "Patient/result-evaluatedresources-multiple-in-ra"
                },
                "onsetDateTime": "2021-01-31"
            },
            "request": {
                "method": "PUT",
                "url": "Condition/result-evaluatedresources-multiple-in-ra-01"
            }
        },
        {
            "resource": {
                "resourceType": "Encounter",
                "id": "result-evaluatedresources-multiple-in-ra-02",
                "meta": {
                    "extension": [
                        {
                            "url": "http://hl7.org/fhir/StructureDefinition/instance-name",
                            "valueString": "Encounter with Dr Howell on 20210714 for Patient 01"
                        },
                        {
                            "url": "http://hl7.org/fhir/StructureDefinition/instance-description",
                            "valueMarkdown": "This is Encounter with Dr Howell on 20210714 for Patient 01."
                        }
                    ],
                    "lastUpdated": "2019-03-13T11:56:57.250-04:00",
                    "profile": [
                        "http://hl7.org/fhir/us/core/StructureDefinition/us-core-encounter"
                    ]
                },
                "status": "finished",
                "class": {
                    "system": "http://terminology.hl7.org/CodeSystem/v3-ActCode",
                    "code": "AMB",
                    "display": "ambulatory"
                },
                "type": [
                    {
                        "coding": [
                            {
                                "system": "http://www.ama-assn.org/go/cpt",
                                "code": "99215"
                            }
                        ],
                        "text": "Office Visit, High Complexity"
                    }
                ],
                "subject": {
                    "reference": "Patient/result-evaluatedresources-multiple-in-ra"
                },
                "participant": [
                    {
                        "individual": {
                            "reference": "Practitioner/result-evaluatedresources-multiple-in-ra"
                        }
                    }
                ],
                "diagnosis": [
                    {
                        "condition": {
                            "reference": "Condition/result-evaluatedresources-multiple-in-ra-02"
                        }
                    }
                ],
                "period": {
                    "start": "2019-02-10",
                    "end": "2019-02-10"
                },
                "serviceProvider": {
                    "reference": "Organization/result-evaluatedresources-multiple-in-ra"
                }
            },
            "request": {
                "method": "PUT",
                "url": "Encounter/result-evaluatedresources-multiple-in-ra-02"
            }
        },
        {
            "resource": {
                "resourceType": "Condition",
                "id": "result-evaluatedresources-multiple-in-ra-02",
                "meta": {
                    "profile": [
                        "http://hl7.org/fhir/us/core/StructureDefinition/us-core-condition"
                    ]
                },
                "clinicalStatus": {
                    "coding": [
                        {
                            "system": "http://terminology.hl7.org/CodeSystem/condition-clinical",
                            "code": "active",
                            "display": "Active"
                        }
                    ],
                    "text": "Active"
                },
                "verificationStatus": {
                    "coding": [
                        {
                            "system": "http://terminology.hl7.org/CodeSystem/condition-ver-status",
                            "code": "confirmed",
                            "display": "Confirmed"
                        }
                    ],
                    "text": "Confirmed"
                },
                "category": [
                    {
                        "coding": [
                            {
                                "system": "http://terminology.hl7.org/CodeSystem/condition-category",
                                "code": "encounter-diagnosis",
                                "display": "Encounter Diagnosis"
                            }
                        ],
                        "text": "Encounter Diagnosis"
                    }
                ],
                "code": {
                    "coding": [
                        {
                            "system": "http://hl7.org/fhir/sid/icd-10-cm",
                            "code": "E08.29",
                            "display": "Diabetes mellitus due to underlying condition with other diabetic kidney complication"
                        }
                    ],
                    "text": "E08.29: Diabetes mellitus due to underlying condition with other diabetic kidney complication"
                },
                "subject": {
                    "reference": "Patient/result-evaluatedresources-multiple-in-ra"
                },
                "onsetDateTime": "2019-02-10"
            },
            "request": {
                "method": "PUT",
                "url": "Condition/result-evaluatedresources-multiple-in-ra-02"
            }
        },
        {
            "resource": {
                "resourceType": "MeasureReport",
                "id": "result-evaluatedresources-count-in-ra",
                "meta": {
                    "profile": [
                        "http://hl7.org/fhir/us/davinci-ra/StructureDefinition/ra-measurereport"
                    ]
                },
                "extension": [
                    {
                        "url": "http://hl7.org/fhir/us/davinci-ra/StructureDefinition/ra-clinicalDataCollectionDeadline",
                        "valueDate": "2021-12-01"
                    }
                ],
                "status": "complete",
                "type": "individual",
                "measure": "https://build.fhir.org/ig/HL7/davinci-ra/Measure-RAModelExample01",
                "subject": {
                    "reference": "Patient/result-evaluatedresources-count-in-ra"
                },
                "date": "2021-10-18",
                "reporter": {
                    "reference": "Organization/result-evaluatedresources-count-in-ra-reporter"
                },
                "period": {
                    "start": "2021-01-01",
                    "end": "2021-09-30"
                },
                "group": [
                    {
                        "id": "group-001",
                        "code": {
                            "coding": [
                                {
                                    "system": "http://terminology.hl7.org/CodeSystem/cmshcc",
                                    "version": "24",
                                    "code": "18",
                                    "display": "Diabetes with Chronic Complications"
                                }
                            ],
                            "text": "HCC 18: Diabetes with Chronic Complications"
                        },
                        "extension": [
                            {
                                "url": "http://hl7.org/fhir/us/davinci-ra/StructureDefinition/ra-suspectType",
                                "valueCodeableConcept": {
                                    "coding": [
                                        {
                                            "code": "historic",
                                            "system": "http://hl7.org/fhir/us/davinci-ra/CodeSystem/suspect-type"
                                        }
                                    ]
                                }
                            },
                            {
                                "url": "http://hl7.org/fhir/us/davinci-ra/StructureDefinition/ra-evidenceStatus",
                                "valueCodeableConcept": {
                                    "coding": [
                                        {
                                            "code": "closed-gap",
                                            "system": "http://hl7.org/fhir/us/davinci-ra/CodeSystem/evidence-status"
                                        }
                                    ]
                                }
                            },
                            {
                                "url": "http://hl7.org/fhir/us/davinci-ra/StructureDefinition/ra-evidenceStatusDate",
                                "valueDate": "2021-04-01"
                            },
                            {
                                "url": "http://hl7.org/fhir/us/davinci-ra/StructureDefinition/ra-hierarchicalStatus",
                                "valueCodeableConcept": {
                                    "coding": [
                                        {
                                            "code": "applied-not-superseded",
                                            "system": "http://hl7.org/fhir/us/davinci-ra/CodeSystem/hierarchical-status"
                                        }
                                    ]
                                }
                            }
                        ]
                    }
                ],
                "evaluatedResource": [
                    {
                        "extension": [
                            {
                                "url": "http://hl7.org/fhir/us/davinci-ra/StructureDefinition/ra-groupReference",
                                "valueString": "group-001"
                            }
                        ],
                        "reference": "Condition/result-evaluatedresources-count-in-ra-01"
                    },
                    {
                        "extension": [
                            {
                                "url": "http://hl7.org/fhir/us/davinci-ra/StructureDefinition/ra-groupReference",
                                "valueString": "group-001"
                            }
                        ],
                        "reference": "Condition/result-evaluatedresources-count-in-ra-02"
                    },
                    {
                        "extension": [
                            {
                                "url": "http://hl7.org/fhir/us/davinci-ra/StructureDefinition/ra-groupReference",
                                "valueString": "group-001"
                            }
                        ],
                        "reference": "Encounter/result-evaluatedresources-count-in-ra-01"
                    },
                    {
                        "extension": [
                            {
                                "url": "http://hl7.org/fhir/us/davinci-ra/StructureDefinition/ra-groupReference",
                                "valueString": "group-001"
                            }
                        ],
                        "reference": "Encounter/result-evaluatedresources-count-in-ra-02"
                    },
                    {
                        "extension": [
                            {
                                "url": "http://hl7.org/fhir/us/davinci-ra/StructureDefinition/ra-groupReference",
                                "valueString": "group-001"
                            }
                        ],
                        "reference": "Patient/result-evaluatedresources-count-in-ra"
                    }
                ]
            },
            "request": {
                "method": "PUT",
                "url": "MeasureReport/result-evaluatedresources-count-in-ra"
            }
        },
        {
            "resource": {
                "resourceType": "Patient",
                "id": "result-evaluatedresources-count-in-ra",
                "meta": {
                    "profile": [
                        "http://hl7.org/fhir/us/core/StructureDefinition/us-core-patient"
                    ]
                },
                "extension": [
                    {
                        "url": "http://hl7.org/fhir/us/core/StructureDefinition/us-core-birthsex",
                        "valueCode": "F"
                    },
                    {
                        "url": "http://hl7.org/fhir/us/core/StructureDefinition/us-core-race",
                        "extension": [
                            {
                                "url": "ombCategory",
                                "valueCoding": {
                                    "system": "urn:oid:2.16.840.1.113883.6.238",
                                    "code": "2106-3",
                                    "display": "White"
                                }
                            },
                            {
                                "url": "text",
                                "valueString": "White"
                            }
                        ]
                    },
                    {
                        "url": "http://hl7.org/fhir/us/core/StructureDefinition/us-core-ethnicity",
                        "extension": [
                            {
                                "url": "ombCategory",
                                "valueCoding": {
                                    "system": "urn:oid:2.16.840.1.113883.6.238",
                                    "code": "2186-5",
                                    "display": "Not Hispanic or Latino"
                                }
                            },
                            {
                                "url": "text",
                                "valueString": "Not Hispanic or Latino"
                            }
                        ]
                    }
                ],
                "identifier": [
                    {
                        "use": "usual",
                        "type": {
                            "coding": [
                                {
                                    "system": "http://terminology.hl7.org/CodeSystem/v2-0203",
                                    "code": "MR",
                                    "display": "Medical record number"
                                }
                            ]
                        },
                        "system": "http://hospital.davinci.org",
                        "value": "1234567"
                    }
                ],
                "active": true,
                "name": [
                    {
                        "use": "official",
                        "family": "Result",
                        "given": [
                            "EvaluatedResource-Count-In-RA"
                        ]
                    }
                ],
                "gender": "female",
                "birthDate": "1975-01-16",
                "deceasedBoolean": false,
                "address": [
                    {
                        "use": "home",
                        "line": [
                            "2222 Home Street"
                        ],
                        "city": "Ann Arbor",
                        "state": "MI",
                        "postalCode": "99999",
                        "country": "USA"
                    }
                ],
                "maritalStatus": {
                    "coding": [
                        {
                            "system": "http://terminology.hl7.org/CodeSystem/v3-MaritalStatus",
                            "code": "M",
                            "display": "Married"
                        }
                    ]
                },
                "communication": [
                    {
                        "language": {
                            "coding": [
                                {
                                    "system": "urn:ietf:bcp:47",
                                    "code": "en-US",
                                    "display": "English (Region=United States)"
                                }
                            ]
                        },
                        "preferred": true
                    }
                ]
            },
            "request": {
                "method": "PUT",
                "url": "Patient/result-evaluatedresources-count-in-ra"
            }
        },
        {
            "resource": {
                "resourceType": "Encounter",
                "id": "result-evaluatedresources-count-in-ra-01",
                "meta": {
                    "extension": [
                        {
                            "url": "http://hl7.org/fhir/StructureDefinition/instance-name",
                            "valueString": "Encounter with Dr Howell on 20210714 for Patient 03"
                        },
                        {
                            "url": "http://hl7.org/fhir/StructureDefinition/instance-description",
                            "valueMarkdown": "This is Encounter with Dr Howell on 20210714 for Patient 03."
                        }
                    ],
                    "lastUpdated": "2021-07-14T11:56:57.250-04:00",
                    "profile": [
                        "http://hl7.org/fhir/us/core/StructureDefinition/us-core-encounter"
                    ]
                },
                "status": "finished",
                "class": {
                    "system": "http://terminology.hl7.org/CodeSystem/v3-ActCode",
                    "code": "AMB",
                    "display": "ambulatory"
                },
                "type": [
                    {
                        "coding": [
                            {
                                "system": "http://www.ama-assn.org/go/cpt",
                                "code": "99215"
                            }
                        ],
                        "text": "Office Visit, High Complexity"
                    }
                ],
                "subject": {
                    "reference": "Patient/result-evaluatedresources-count-in-ra"
                },
                "participant": [
                    {
                        "individual": {
                            "reference": "Practitioner/result-evaluatedresources-count-in-ra"
                        }
                    }
                ],
                "diagnosis": [
                    {
                        "condition": {
                            "reference": "Condition/result-evaluatedresources-count-in-ra-01"
                        }
                    }
                ],
                "period": {
                    "start": "2021-01-31",
                    "end": "2021-01-31"
                },
                "serviceProvider": {
                    "reference": "Organization/result-evaluatedresources-count-in-ra"
                }
            },
            "request": {
                "method": "PUT",
                "url": "Encounter/result-evaluatedresources-count-in-ra-01"
            }
        },
        {
            "resource": {
                "resourceType": "Condition",
                "id": "result-evaluatedresources-count-in-ra-01",
                "meta": {
                    "profile": [
                        "http://hl7.org/fhir/us/core/StructureDefinition/us-core-condition"
                    ]
                },
                "clinicalStatus": {
                    "coding": [
                        {
                            "system": "http://terminology.hl7.org/CodeSystem/condition-clinical",
                            "code": "active",
                            "display": "Active"
                        }
                    ],
                    "text": "Active"
                },
                "verificationStatus": {
                    "coding": [
                        {
                            "system": "http://terminology.hl7.org/CodeSystem/condition-ver-status",
                            "code": "confirmed",
                            "display": "Confirmed"
                        }
                    ],
                    "text": "Confirmed"
                },
                "category": [
                    {
                        "coding": [
                            {
                                "system": "http://terminology.hl7.org/CodeSystem/condition-category",
                                "code": "encounter-diagnosis",
                                "display": "Encounter Diagnosis"
                            }
                        ],
                        "text": "Encounter Diagnosis"
                    }
                ],
                "code": {
                    "coding": [
                        {
                            "system": "http://hl7.org/fhir/sid/icd-10-cm",
                            "code": "E08.29",
                            "display": "Diabetes mellitus due to underlying condition with other diabetic kidney complication"
                        }
                    ],
                    "text": "E08.29: Diabetes mellitus due to underlying condition with other diabetic kidney complication"
                },
                "subject": {
                    "reference": "Patient/result-evaluatedresources-count-in-ra"
                },
                "onsetDateTime": "2021-01-31"
            },
            "request": {
                "method": "PUT",
                "url": "Condition/result-evaluatedresources-count-in-ra-01"
            }
        },
        {
            "resource": {
                "resourceType": "Encounter",
                "id": "result-evaluatedresources-count-in-ra-02",
                "meta": {
                    "extension": [
                        {
                            "url": "http://hl7.org/fhir/StructureDefinition/instance-name",
                            "valueString": "Encounter with Dr Howell on 20210714 for Patient 01"
                        },
                        {
                            "url": "http://hl7.org/fhir/StructureDefinition/instance-description",
                            "valueMarkdown": "This is Encounter with Dr Howell on 20210714 for Patient 01."
                        }
                    ],
                    "lastUpdated": "2019-03-13T11:56:57.250-04:00",
                    "profile": [
                        "http://hl7.org/fhir/us/core/StructureDefinition/us-core-encounter"
                    ]
                },
                "status": "finished",
                "class": {
                    "system": "http://terminology.hl7.org/CodeSystem/v3-ActCode",
                    "code": "AMB",
                    "display": "ambulatory"
                },
                "type": [
                    {
                        "coding": [
                            {
                                "system": "http://www.ama-assn.org/go/cpt",
                                "code": "99215"
                            }
                        ],
                        "text": "Office Visit, High Complexity"
                    }
                ],
                "subject": {
                    "reference": "Patient/result-evaluatedresources-count-in-ra"
                },
                "participant": [
                    {
                        "individual": {
                            "reference": "Practitioner/result-evaluatedresources-count-in-ra"
                        }
                    }
                ],
                "diagnosis": [
                    {
                        "condition": {
                            "reference": "Condition/result-evaluatedresources-count-in-ra-02"
                        }
                    }
                ],
                "period": {
                    "start": "2019-02-10",
                    "end": "2019-02-10"
                },
                "serviceProvider": {
                    "reference": "Organization/result-evaluatedresources-count-in-ra"
                }
            },
            "request": {
                "method": "PUT",
                "url": "Encounter/result-evaluatedresources-count-in-ra-02"
            }
        },
        {
            "resource": {
                "resourceType": "Condition",
                "id": "result-evaluatedresources-count-in-ra-02",
                "meta": {
                    "profile": [
                        "http://hl7.org/fhir/us/core/StructureDefinition/us-core-condition"
                    ]
                },
                "clinicalStatus": {
                    "coding": [
                        {
                            "system": "http://terminology.hl7.org/CodeSystem/condition-clinical",
                            "code": "active",
                            "display": "Active"
                        }
                    ],
                    "text": "Active"
                },
                "verificationStatus": {
                    "coding": [
                        {
                            "system": "http://terminology.hl7.org/CodeSystem/condition-ver-status",
                            "code": "confirmed",
                            "display": "Confirmed"
                        }
                    ],
                    "text": "Confirmed"
                },
                "category": [
                    {
                        "coding": [
                            {
                                "system": "http://terminology.hl7.org/CodeSystem/condition-category",
                                "code": "encounter-diagnosis",
                                "display": "Encounter Diagnosis"
                            }
                        ],
                        "text": "Encounter Diagnosis"
                    }
                ],
                "code": {
                    "coding": [
                        {
                            "system": "http://hl7.org/fhir/sid/icd-10-cm",
                            "code": "E08.29",
                            "display": "Diabetes mellitus due to underlying condition with other diabetic kidney complication"
                        }
                    ],
                    "text": "E08.29: Diabetes mellitus due to underlying condition with other diabetic kidney complication"
                },
                "subject": {
                    "reference": "Patient/result-evaluatedresources-count-in-ra"
                },
                "onsetDateTime": "2019-02-10"
            },
            "request": {
                "method": "PUT",
                "url": "Condition/result-evaluatedresources-count-in-ra-02"
            }
        },
        {
            "resource": {
                "resourceType": "MeasureReport",
                "id": "result-evaluatedresources-condition-in-ra",
                "meta": {
                    "profile": [
                        "http://hl7.org/fhir/us/davinci-ra/StructureDefinition/ra-measurereport"
                    ]
                },
                "extension": [
                    {
                        "url": "http://hl7.org/fhir/us/davinci-ra/StructureDefinition/ra-clinicalDataCollectionDeadline",
                        "valueDate": "2021-12-01"
                    }
                ],
                "status": "complete",
                "type": "individual",
                "measure": "https://build.fhir.org/ig/HL7/davinci-ra/Measure-RAModelExample01",
                "subject": {
                    "reference": "Patient/result-evaluatedresources-condition-in-ra"
                },
                "date": "2021-10-18",
                "reporter": {
                    "reference": "Organization/result-evaluatedresources-condition-in-ra-reporter"
                },
                "period": {
                    "start": "2021-01-01",
                    "end": "2021-09-30"
                },
                "group": [
                    {
                        "id": "group-001",
                        "code": {
                            "coding": [
                                {
                                    "system": "http://terminology.hl7.org/CodeSystem/cmshcc",
                                    "version": "24",
                                    "code": "18",
                                    "display": "Diabetes with Chronic Complications"
                                }
                            ],
                            "text": "HCC 18: Diabetes with Chronic Complications"
                        },
                        "extension": [
                            {
                                "url": "http://hl7.org/fhir/us/davinci-ra/StructureDefinition/ra-suspectType",
                                "valueCodeableConcept": {
                                    "coding": [
                                        {
                                            "code": "historic",
                                            "system": "http://hl7.org/fhir/us/davinci-ra/CodeSystem/suspect-type"
                                        }
                                    ]
                                }
                            },
                            {
                                "url": "http://hl7.org/fhir/us/davinci-ra/StructureDefinition/ra-evidenceStatus",
                                "valueCodeableConcept": {
                                    "coding": [
                                        {
                                            "code": "closed-gap",
                                            "system": "http://hl7.org/fhir/us/davinci-ra/CodeSystem/evidence-status"
                                        }
                                    ]
                                }
                            },
                            {
                                "url": "http://hl7.org/fhir/us/davinci-ra/StructureDefinition/ra-evidenceStatusDate",
                                "valueDate": "2021-04-01"
                            },
                            {
                                "url": "http://hl7.org/fhir/us/davinci-ra/StructureDefinition/ra-hierarchicalStatus",
                                "valueCodeableConcept": {
                                    "coding": [
                                        {
                                            "code": "applied-not-superseded",
                                            "system": "http://hl7.org/fhir/us/davinci-ra/CodeSystem/hierarchical-status"
                                        }
                                    ]
                                }
                            }
                        ]
                    }
                ],
                "evaluatedResource": [
                    {
                        "extension": [
                            {
                                "url": "http://hl7.org/fhir/us/davinci-ra/StructureDefinition/ra-groupReference",
                                "valueString": "group-001"
                            }
                        ],
                        "reference": "Condition/result-evaluatedresources-condition-in-ra-01"
                    },
                    {
                        "extension": [
                            {
                                "url": "http://hl7.org/fhir/us/davinci-ra/StructureDefinition/ra-groupReference",
                                "valueString": "group-001"
                            }
                        ],
                        "reference": "Condition/result-evaluatedresources-condition-in-ra-02"
                    },
                    {
                        "extension": [
                            {
                                "url": "http://hl7.org/fhir/us/davinci-ra/StructureDefinition/ra-groupReference",
                                "valueString": "group-001"
                            }
                        ],
                        "reference": "Encounter/result-evaluatedresources-condition-in-ra-01"
                    },
                    {
                        "extension": [
                            {
                                "url": "http://hl7.org/fhir/us/davinci-ra/StructureDefinition/ra-groupReference",
                                "valueString": "group-001"
                            }
                        ],
                        "reference": "Encounter/result-evaluatedresources-condition-in-ra-02"
                    },
                    {
                        "extension": [
                            {
                                "url": "http://hl7.org/fhir/us/davinci-ra/StructureDefinition/ra-groupReference",
                                "valueString": "group-001"
                            }
                        ],
                        "reference": "Patient/result-evaluatedresources-condition-in-ra"
                    }
                ]
            },
            "request": {
                "method": "PUT",
                "url": "MeasureReport/result-evaluatedresources-condition-in-ra"
            }
        },
        {
            "resource": {
                "resourceType": "Patient",
                "id": "result-evaluatedresources-condition-in-ra",
                "meta": {
                    "profile": [
                        "http://hl7.org/fhir/us/core/StructureDefinition/us-core-patient"
                    ]
                },
                "extension": [
                    {
                        "url": "http://hl7.org/fhir/us/core/StructureDefinition/us-core-birthsex",
                        "valueCode": "F"
                    },
                    {
                        "url": "http://hl7.org/fhir/us/core/StructureDefinition/us-core-race",
                        "extension": [
                            {
                                "url": "ombCategory",
                                "valueCoding": {
                                    "system": "urn:oid:2.16.840.1.113883.6.238",
                                    "code": "2106-3",
                                    "display": "White"
                                }
                            },
                            {
                                "url": "text",
                                "valueString": "White"
                            }
                        ]
                    },
                    {
                        "url": "http://hl7.org/fhir/us/core/StructureDefinition/us-core-ethnicity",
                        "extension": [
                            {
                                "url": "ombCategory",
                                "valueCoding": {
                                    "system": "urn:oid:2.16.840.1.113883.6.238",
                                    "code": "2186-5",
                                    "display": "Not Hispanic or Latino"
                                }
                            },
                            {
                                "url": "text",
                                "valueString": "Not Hispanic or Latino"
                            }
                        ]
                    }
                ],
                "identifier": [
                    {
                        "use": "usual",
                        "type": {
                            "coding": [
                                {
                                    "system": "http://terminology.hl7.org/CodeSystem/v2-0203",
                                    "code": "MR",
                                    "display": "Medical record number"
                                }
                            ]
                        },
                        "system": "http://hospital.davinci.org",
                        "value": "123456"
                    }
                ],
                "active": true,
                "name": [
                    {
                        "use": "official",
                        "family": "Result",
                        "given": [
                            "EvaluatedResource-Condition-In-RA"
                        ]
                    }
                ],
                "gender": "female",
                "birthDate": "1975-01-16",
                "deceasedBoolean": false,
                "address": [
                    {
                        "use": "home",
                        "line": [
                            "2222 Home Street"
                        ],
                        "city": "Ann Arbor",
                        "state": "MI",
                        "postalCode": "99999",
                        "country": "USA"
                    }
                ],
                "maritalStatus": {
                    "coding": [
                        {
                            "system": "http://terminology.hl7.org/CodeSystem/v3-MaritalStatus",
                            "code": "M",
                            "display": "Married"
                        }
                    ]
                },
                "communication": [
                    {
                        "language": {
                            "coding": [
                                {
                                    "system": "urn:ietf:bcp:47",
                                    "code": "en-US",
                                    "display": "English (Region=United States)"
                                }
                            ]
                        },
                        "preferred": true
                    }
                ]
            },
            "request": {
                "method": "PUT",
                "url": "Patient/result-evaluatedresources-condition-in-ra"
            }
        },
        {
            "resource": {
                "resourceType": "Encounter",
                "id": "result-evaluatedresources-condition-in-ra-01",
                "meta": {
                    "extension": [
                        {
                            "url": "http://hl7.org/fhir/StructureDefinition/instance-name",
                            "valueString": "Encounter with Dr Howell on 20210714 for Patient 03"
                        },
                        {
                            "url": "http://hl7.org/fhir/StructureDefinition/instance-description",
                            "valueMarkdown": "This is Encounter with Dr Howell on 20210714 for Patient 03."
                        }
                    ],
                    "lastUpdated": "2021-07-14T11:56:57.250-04:00",
                    "profile": [
                        "http://hl7.org/fhir/us/core/StructureDefinition/us-core-encounter"
                    ]
                },
                "status": "finished",
                "class": {
                    "system": "http://terminology.hl7.org/CodeSystem/v3-ActCode",
                    "code": "AMB",
                    "display": "ambulatory"
                },
                "type": [
                    {
                        "coding": [
                            {
                                "system": "http://www.ama-assn.org/go/cpt",
                                "code": "99215"
                            }
                        ],
                        "text": "Office Visit, High Complexity"
                    }
                ],
                "subject": {
                    "reference": "Patient/result-evaluatedresources-condition-in-ra"
                },
                "participant": [
                    {
                        "individual": {
                            "reference": "Practitioner/result-evaluatedresources-condition-in-ra"
                        }
                    }
                ],
                "diagnosis": [
                    {
                        "condition": {
                            "reference": "Condition/result-evaluatedresources-condition-in-ra-01"
                        }
                    }
                ],
                "period": {
                    "start": "2021-01-31",
                    "end": "2021-01-31"
                },
                "serviceProvider": {
                    "reference": "Organization/result-evaluatedresources-condition-in-ra"
                }
            },
            "request": {
                "method": "PUT",
                "url": "Encounter/result-evaluatedresources-condition-in-ra-01"
            }
        },
        {
            "resource": {
                "resourceType": "Condition",
                "id": "result-evaluatedresources-condition-in-ra-01",
                "meta": {
                    "profile": [
                        "http://hl7.org/fhir/us/core/StructureDefinition/us-core-condition"
                    ]
                },
                "clinicalStatus": {
                    "coding": [
                        {
                            "system": "http://terminology.hl7.org/CodeSystem/condition-clinical",
                            "code": "active",
                            "display": "Active"
                        }
                    ],
                    "text": "Active"
                },
                "verificationStatus": {
                    "coding": [
                        {
                            "system": "http://terminology.hl7.org/CodeSystem/condition-ver-status",
                            "code": "confirmed",
                            "display": "Confirmed"
                        }
                    ],
                    "text": "Confirmed"
                },
                "category": [
                    {
                        "coding": [
                            {
                                "system": "http://terminology.hl7.org/CodeSystem/condition-category",
                                "code": "encounter-diagnosis",
                                "display": "Encounter Diagnosis"
                            }
                        ],
                        "text": "Encounter Diagnosis"
                    }
                ],
                "code": {
                    "coding": [
                        {
                            "system": "http://hl7.org/fhir/sid/icd-10-cm",
                            "code": "E08.29",
                            "display": "Diabetes mellitus due to underlying condition with other diabetic kidney complication"
                        }
                    ],
                    "text": "E08.29: Diabetes mellitus due to underlying condition with other diabetic kidney complication"
                },
                "subject": {
                    "reference": "Patient/result-evaluatedresources-condition-in-ra"
                },
                "onsetDateTime": "2021-01-31"
            },
            "request": {
                "method": "PUT",
                "url": "Condition/result-evaluatedresources-condition-in-ra-01"
            }
        },
        {
            "resource": {
                "resourceType": "Encounter",
                "id": "result-evaluatedresources-condition-in-ra-02",
                "meta": {
                    "extension": [
                        {
                            "url": "http://hl7.org/fhir/StructureDefinition/instance-name",
                            "valueString": "Encounter with Dr Howell on 20210714 for Patient 01"
                        },
                        {
                            "url": "http://hl7.org/fhir/StructureDefinition/instance-description",
                            "valueMarkdown": "This is Encounter with Dr Howell on 20210714 for Patient 01."
                        }
                    ],
                    "lastUpdated": "2019-03-13T11:56:57.250-04:00",
                    "profile": [
                        "http://hl7.org/fhir/us/core/StructureDefinition/us-core-encounter"
                    ]
                },
                "status": "finished",
                "class": {
                    "system": "http://terminology.hl7.org/CodeSystem/v3-ActCode",
                    "code": "AMB",
                    "display": "ambulatory"
                },
                "type": [
                    {
                        "coding": [
                            {
                                "system": "http://www.ama-assn.org/go/cpt",
                                "code": "99215"
                            }
                        ],
                        "text": "Office Visit, High Complexity"
                    }
                ],
                "subject": {
                    "reference": "Patient/result-evaluatedresources-condition-in-ra"
                },
                "participant": [
                    {
                        "individual": {
                            "reference": "Practitioner/result-evaluatedresources-condition-in-ra"
                        }
                    }
                ],
                "diagnosis": [
                    {
                        "condition": {
                            "reference": "Condition/result-evaluatedresources-condition-in-ra-02"
                        }
                    }
                ],
                "period": {
                    "start": "2019-02-10",
                    "end": "2019-02-10"
                },
                "serviceProvider": {
                    "reference": "Organization/result-evaluatedresources-condition-in-ra"
                }
            },
            "request": {
                "method": "PUT",
                "url": "Encounter/result-evaluatedresources-condition-in-ra-02"
            }
        },
        {
            "resource": {
                "resourceType": "Condition",
                "id": "result-evaluatedresources-condition-in-ra-02",
                "meta": {
                    "profile": [
                        "http://hl7.org/fhir/us/core/StructureDefinition/us-core-condition"
                    ]
                },
                "clinicalStatus": {
                    "coding": [
                        {
                            "system": "http://terminology.hl7.org/CodeSystem/condition-clinical",
                            "code": "active",
                            "display": "Active"
                        }
                    ],
                    "text": "Active"
                },
                "verificationStatus": {
                    "coding": [
                        {
                            "system": "http://terminology.hl7.org/CodeSystem/condition-ver-status",
                            "code": "confirmed",
                            "display": "Confirmed"
                        }
                    ],
                    "text": "Confirmed"
                },
                "category": [
                    {
                        "coding": [
                            {
                                "system": "http://terminology.hl7.org/CodeSystem/condition-category",
                                "code": "encounter-diagnosis",
                                "display": "Encounter Diagnosis"
                            }
                        ],
                        "text": "Encounter Diagnosis"
                    }
                ],
                "code": {
                    "coding": [
                        {
                            "system": "http://hl7.org/fhir/sid/icd-10-cm",
                            "code": "E08.29",
                            "display": "Diabetes mellitus due to underlying condition with other diabetic kidney complication"
                        }
                    ],
                    "text": "E08.29: Diabetes mellitus due to underlying condition with other diabetic kidney complication"
                },
                "subject": {
                    "reference": "Patient/result-evaluatedresources-condition-in-ra"
                },
                "onsetDateTime": "2019-02-10"
            },
            "request": {
                "method": "PUT",
                "url": "Condition/result-evaluatedresources-condition-in-ra-02"
            }
        },
        {
            "resource": {
                "resourceType": "Encounter",
                "id": "result-evaluatedresources-condition-in-ra-out",
                "meta": {
                    "extension": [
                        {
                            "url": "http://hl7.org/fhir/StructureDefinition/instance-name",
                            "valueString": "Encounter with Dr Smith on 20210810 for Patient 01"
                        },
                        {
                            "url": "http://hl7.org/fhir/StructureDefinition/instance-description",
                            "valueMarkdown": "This is Encounter with Dr Smith on 20210810 for Patient 01."
                        }
                    ],
                    "lastUpdated": "2019-03-13T11:56:57.250-04:00",
                    "profile": [
                        "http://hl7.org/fhir/us/core/StructureDefinition/us-core-encounter"
                    ]
                },
                "status": "finished",
                "class": {
                    "system": "http://terminology.hl7.org/CodeSystem/v3-ActCode",
                    "code": "AMB",
                    "display": "ambulatory"
                },
                "type": [
                    {
                        "coding": [
                            {
                                "system": "http://www.ama-assn.org/go/cpt",
                                "code": "99215"
                            }
                        ],
                        "text": "Office Visit, High Complexity"
                    }
                ],
                "subject": {
                    "reference": "Patient/result-evaluatedresources-condition-in-ra"
                },
                "participant": [
                    {
                        "individual": {
                            "reference": "Practitioner/result-evaluatedresources-condition-in-ra"
                        }
                    }
                ],
                "diagnosis": [
                    {
                        "condition": {
                            "reference": "Condition/result-evaluatedresources-condition-in-ra-out"
                        }
                    }
                ],
                "period": {
                    "start": "2021-08-10",
                    "end": "2021-08-10"
                },
                "serviceProvider": {
                    "reference": "Organization/result-evaluatedresources-condition-in-ra"
                }
            },
            "request": {
                "method": "PUT",
                "url": "Encounter/result-evaluatedresources-condition-in-ra-out"
            }
        },
        {
            "resource": {
                "resourceType": "Condition",
                "id": "result-evaluatedresources-condition-in-ra-out",
                "meta": {
                    "profile": [
                        "http://hl7.org/fhir/us/core/StructureDefinition/us-core-condition"
                    ]
                },
                "clinicalStatus": {
                    "coding": [
                        {
                            "system": "http://terminology.hl7.org/CodeSystem/condition-clinical",
                            "code": "active",
                            "display": "Active"
                        }
                    ],
                    "text": "Active"
                },
                "verificationStatus": {
                    "coding": [
                        {
                            "system": "http://terminology.hl7.org/CodeSystem/condition-ver-status",
                            "code": "confirmed",
                            "display": "Confirmed"
                        }
                    ],
                    "text": "Confirmed"
                },
                "category": [
                    {
                        "coding": [
                            {
                                "system": "http://terminology.hl7.org/CodeSystem/condition-category",
                                "code": "encounter-diagnosis",
                                "display": "Encounter Diagnosis"
                            }
                        ],
                        "text": "Encounter Diagnosis"
                    }
                ],
                "code": {
                    "coding": [
                        {
                            "system": "http://hl7.org/fhir/sid/icd-10-cm",
                            "code": "J10.1",
                            "display": "Influenza with other respiratory manifestations, seasonal influenza virus identified"
                        }
                    ],
                    "text": "J10.1: Influenza with other respiratory manifestations, seasonal influenza virus identified"
                },
                "subject": {
                    "reference": "Patient/result-evaluatedresources-condition-in-ra"
                },
                "onsetDateTime": "2021-09-26"
            },
            "request": {
                "method": "PUT",
                "url": "Condition/result-evaluatedresources-condition-in-ra-out"
            }
        },
        {
            "resource": {
                "resourceType": "Observation",
                "id": "result-evaluatedresources-condition-in-ra-out",
                "meta": {
                    "extension": [
                        {
                            "url": "http://hl7.org/fhir/StructureDefinition/instance-name",
                            "valueString": "Sodium [Moles/volume] in Serum or Plasma for Pat01"
                        },
                        {
                            "url": "http://hl7.org/fhir/StructureDefinition/instance-description",
                            "valueMarkdown": "Sodium [Moles/volume] in Serum or Plasma for Pat01*."
                        }
                    ],
                    "profile": [
                        "http://hl7.org/fhir/us/core/StructureDefinition/us-core-observation-lab"
                    ]
                },
                "status": "final",
                "category": [
                    {
                        "coding": [
                            {
                                "system": "http://terminology.hl7.org/CodeSystem/observation-category",
                                "code": "laboratory",
                                "display": "Laboratory"
                            }
                        ],
                        "text": "Laboratory"
                    }
                ],
                "code": {
                    "coding": [
                        {
                            "system": "http://loinc.org",
                            "code": "2951-2",
                            "display": "Sodium [Moles/volume] in Serum or Plasma"
                        }
                    ],
                    "text": "Sodium [Moles/volume] in Serum or Plasma"
                },
                "subject": {
                    "reference": "Patient/result-evaluatedresources-condition-in-ra",
                    "display": "Eve Everywoman"
                },
                "effectiveDateTime": "2019-06-17",
                "valueQuantity": {
                    "value": 137,
                    "unit": "mmol/L",
                    "system": "http://unitsofmeasure.org"
                },
                "referenceRange": [
                    {
                        "low": {
                            "value": 134,
                            "unit": "mmol/L",
                            "system": "http://unitsofmeasure.org",
                            "code": "mmol/L"
                        },
                        "high": {
                            "value": 144,
                            "unit": "mmol/L",
                            "system": "http://unitsofmeasure.org",
                            "code": "mmol/L"
                        },
                        "type": {
                            "coding": [
                                {
                                    "system": "http://terminology.hl7.org/CodeSystem/referencerange-meaning",
                                    "code": "normal",
                                    "display": "Normal Range"
                                }
                            ],
                            "text": "Normal Range"
                        }
                    }
                ]
            },
            "request": {
                "method": "PUT",
                "url": "Observation/result-evaluatedresources-condition-in-ra-out"
            }
        },
        {
            "resource": {
                "resourceType": "Bundle",
                "id": "result-profile-in-ra",
                "meta": {
                    "profile": [
                        "http://hl7.org/fhir/us/davinci-ra/StructureDefinition/ra-bundle"
                    ]
                },
                "identifier": {
                    "system": "urn:ietf:rfc:3986",
                    "value": "urn:uuid:53200545-98fd-42bb-91f8-02bc4c99e592"
                },
                "type": "document",
                "timestamp": "2022-05-01T13:02:53+00:00",
                "entry": [
                    {
                        "fullUrl": "http://example.org/fhir/ra/Composition/result-profile-in-ra",
                        "resource": {
                            "resourceType": "Composition",
                            "id": "result-profile-in-ra",
                            "meta": {
                                "profile": [
                                    "http://hl7.org/fhir/us/davinci-ra/StructureDefinition/ra-composition"
                                ]
                            },
                            "status": "final",
                            "type": {
                                "coding": [
                                    {
                                        "system": "http://loinc.org",
                                        "code": "96315-7",
                                        "display": "Gaps in care report (TODO: this is a placeholder, need a new LOINC code for risk coding gap report)"
                                    }
                                ]
                            },
                            "subject": {
                                "reference": "Patient/result-profile-in-ra"
                            },
                            "date": "2022-05-01T13:02:53+00:00",
                            "author": [
                                {
                                    "reference": "Organization/result-profile-in-ra-author"
                                }
                            ],
                            "title": "Risk Adjustment Bundle for patient ra-result-profile-in-patient",
                            "section": [
                                {
                                    "title": "Risk Adjustment Report",
                                    "focus": {
                                        "reference": "MeasureReport/result-profile-in-ra"
                                    },
                                    "entry": [
                                        {
                                            "reference": "DetectedIssue/result-profile-in-ra"
                                        }
                                    ]
                                }
                            ]
                        }
                    },
                    {
                        "fullUrl": "http://example.org/fhir/ra/MeasureReport/result-profile-in-ra",
                        "resource": {
                            "resourceType": "MeasureReport",
                            "id": "result-profile-in-ra",
                            "meta": {
                                "profile": [
                                    "http://hl7.org/fhir/us/davinci-ra/StructureDefinition/ra-measurereport"
                                ]
                            },
                            "extension": [
                                {
                                    "url": "http://hl7.org/fhir/us/davinci-ra/StructureDefinition/ra-clinicalDataCollectionDeadline",
                                    "valueDate": "2021-12-01"
                                }
                            ],
                            "status": "complete",
                            "type": "individual",
                            "measure": "https://build.fhir.org/ig/HL7/davinci-ra/Measure-RAModelExample01",
                            "subject": {
                                "reference": "Patient/result-profile-in-ra"
                            },
                            "date": "2021-10-18",
                            "reporter": {
                                "reference": "Organization/result-profile-in-ra-reporter"
                            },
                            "period": {
                                "start": "2021-01-01",
                                "end": "2021-09-30"
                            },
                            "group": [
                                {
                                    "id": "group-001",
                                    "code": {
                                        "coding": [
                                            {
                                                "system": "http://terminology.hl7.org/CodeSystem/cmshcc",
                                                "version": "24",
                                                "code": "53",
                                                "display": "Major Depressive, Bipolar, and Paranoid Disorders"
                                            }
                                        ],
                                        "text": "HCC 59: Major Depressive, Bipolar, and Paranoid Disorders"
                                    },
                                    "extension": [
                                        {
                                            "url": "http://hl7.org/fhir/us/davinci-ra/StructureDefinition/ra-suspectType",
                                            "valueCodeableConcept": {
                                                "coding": [
                                                    {
                                                        "code": "historic",
                                                        "system": "http://hl7.org/fhir/us/davinci-ra/CodeSystem/suspect-type"
                                                    }
                                                ]
                                            }
                                        },
                                        {
                                            "url": "http://hl7.org/fhir/us/davinci-ra/StructureDefinition/ra-evidenceStatus",
                                            "valueCodeableConcept": {
                                                "coding": [
                                                    {
                                                        "code": "open-gap",
                                                        "system": "http://hl7.org/fhir/us/davinci-ra/CodeSystem/evidence-status"
                                                    }
                                                ]
                                            }
                                        },
                                        {
                                            "url": "http://hl7.org/fhir/us/davinci-ra/StructureDefinition/ra-evidenceStatusDate",
                                            "valueDate": "2020-07-15"
                                        },
                                        {
                                            "url": "http://hl7.org/fhir/us/davinci-ra/StructureDefinition/ra-hierarchicalStatus",
                                            "valueCodeableConcept": {
                                                "coding": [
                                                    {
                                                        "code": "applied-not-superseded",
                                                        "system": "http://hl7.org/fhir/us/davinci-ra/CodeSystem/hierarchical-status"
                                                    }
                                                ]
                                            }
                                        }
                                    ]
                                }
                            ],
                            "evaluatedResource": [
                                {
                                    "extension": [
                                        {
                                            "url": "http://hl7.org/fhir/us/davinci-ra/StructureDefinition/ra-groupReference",
                                            "valueString": "group-001"
                                        }
                                    ],
                                    "reference": "Patient/result-profile-in-ra"
                                },
                                {
                                    "extension": [
                                        {
                                            "url": "http://hl7.org/fhir/us/davinci-ra/StructureDefinition/ra-groupReference",
                                            "valueString": "group-001"
                                        }
                                    ],
                                    "reference": "Condition/result-profile-in-ra"
                                },
                                {
                                    "extension": [
                                        {
                                            "url": "http://hl7.org/fhir/us/davinci-ra/StructureDefinition/ra-groupReference",
                                            "valueString": "group-001"
                                        }
                                    ],
                                    "reference": "Encounter/result-profile-in-ra"
                                }
                            ]
                        }
                    },
                    {
                        "fullUrl": "http://example.org/fhir/ra/DetectedIssue/result-profile-in-ra",
                        "resource": {
                            "resourceType": "DetectedIssue",
                            "id": "result-profile-in-ra",
                            "meta": {
                                "profile": [
                                    "http://hl7.org/fhir/us/davinci-ra/StructureDefinition/ra-detectedissue"
                                ]
                            },
                            "modifierExtension": [
                                {
                                    "url": "http://hl7.org/fhir/us/davinci-ra/StructureDefinition/extension-codingGapType",
                                    "valueCodeableConcept": {
                                        "coding": [
                                            {
                                                "system": "http://hl7.org/fhir/us/davinci-ra/CodeSystem/coding-gap-type",
                                                "code": "gap-closure-request"
                                            }
                                        ]
                                    }
                                }
                            ],
                            "extension": [
                                {
                                    "url": "http://hl7.org/fhir/us/davinci-ra/StructureDefinition/ra-groupReference",
                                    "valueString": "group-001"
                                }
                            ],
                            "status": "final",
                            "code": {
                                "coding": [
                                    {
                                        "system": "http://terminology.hl7.org/CodeSystem/v3-ActCode",
                                        "code": "CODINGGAP",
                                        "display": "Coding Gaps"
                                    }
                                ]
                            },
                            "patient": {
                                "reference": "Patient/result-profile-in-ra"
                            },
                            "evidence": [
                                {
                                    "detail": [
                                        {
                                            "reference": "MeasureReport/result-profile-in-ra"
                                        }
                                    ]
                                }
                            ]
                        }
                    },
                    {
                        "fullUrl": "http://example.org/fhir/ra/Patient/result-profile-in-ra",
                        "resource": {
                            "resourceType": "Patient",
                            "id": "result-profile-in-ra",
                            "meta": {
                                "profile": [
                                    "http://hl7.org/fhir/us/core/StructureDefinition/us-core-patient"
                                ]
                            },
                            "extension": [
                                {
                                    "extension": [
                                        {
                                            "url": "ombCategory",
                                            "valueCoding": {
                                                "system": "urn:oid:2.16.840.1.113883.6.238",
                                                "code": "2028-9",
                                                "display": "Asian"
                                            }
                                        },
                                        {
                                            "url": "text",
                                            "valueString": "Asian"
                                        }
                                    ],
                                    "url": "http://hl7.org/fhir/us/core/StructureDefinition/us-core-race"
                                },
                                {
                                    "extension": [
                                        {
                                            "url": "ombCategory",
                                            "valueCoding": {
                                                "system": "urn:oid:2.16.840.1.113883.6.238",
                                                "code": "2135-2",
                                                "display": "Hispanic or Latino"
                                            }
                                        },
                                        {
                                            "url": "text",
                                            "valueString": "Hispanic or Latino"
                                        }
                                    ],
                                    "url": "http://hl7.org/fhir/us/core/StructureDefinition/us-core-ethnicity"
                                }
                            ],
                            "identifier": [
                                {
                                    "use": "usual",
                                    "type": {
                                        "coding": [
                                            {
                                                "system": "http://terminology.hl7.org/CodeSystem/v2-0203",
                                                "code": "MR",
                                                "display": "Medical Record Number"
                                            }
                                        ]
                                    },
                                    "system": "http://hospital.smarthealthit.org",
                                    "value": "999995992"
                                }
                            ],
                            "name": [
                                {
                                    "family": "Result",
                                    "given": [
                                        "ProfileIn"
                                    ]
                                }
                            ],
                            "gender": "female",
                            "birthDate": "1965-01-01"
                        }
                    },
                    {
                        "fullUrl": "http://example.org/fhir/ra/Condition/result-profile-in-ra",
                        "resource": {
                            "resourceType": "Condition",
                            "id": "result-profile-in-ra",
                            "meta": {
                                "profile": [
                                    "http://hl7.org/fhir/us/core/StructureDefinition/us-core-condition"
                                ]
                            },
                            "clinicalStatus": {
                                "coding": [
                                    {
                                        "system": "http://terminology.hl7.org/CodeSystem/condition-clinical",
                                        "code": "active",
                                        "display": "Active"
                                    }
                                ],
                                "text": "Active"
                            },
                            "verificationStatus": {
                                "coding": [
                                    {
                                        "system": "http://terminology.hl7.org/CodeSystem/condition-ver-status",
                                        "code": "confirmed",
                                        "display": "Confirmed"
                                    }
                                ],
                                "text": "Confirmed"
                            },
                            "category": [
                                {
                                    "coding": [
                                        {
                                            "system": "http://terminology.hl7.org/CodeSystem/condition-category",
                                            "code": "encounter-diagnosis",
                                            "display": "Encounter Diagnosis"
                                        }
                                    ],
                                    "text": "Problem"
                                }
                            ],
                            "code": {
                                "coding": [
                                    {
                                        "system": "http://hl7.org/fhir/sid/icd-10-cm",
                                        "code": "F31.61",
                                        "display": "Bipolar disorder, current episode mixed, mild"
                                    }
                                ],
                                "text": "Bipolar disorder, current episode mixed, mild"
                            },
                            "subject": {
                                "reference": "Patient/result-profile-in-ra"
                            },
                            "onsetDateTime": "2017-02-03"
                        }
                    },
                    {
                        "fullUrl": "http://example.org/fhir/ra/Encounter/result-profile-in-ra",
                        "resource": {
                            "resourceType": "Encounter",
                            "id": "result-profile-in-ra",
                            "meta": {
                                "extension": [
                                    {
                                        "url": "http://hl7.org/fhir/StructureDefinition/instance-name",
                                        "valueString": "Encounter with Dr Howell on 20210714 for Patient 03"
                                    },
                                    {
                                        "url": "http://hl7.org/fhir/StructureDefinition/instance-description",
                                        "valueMarkdown": "This is Encounter with Dr Howell on 20210714 for Patient 03."
                                    }
                                ],
                                "lastUpdated": "2021-07-14T11:56:57.250-04:00",
                                "profile": [
                                    "http://hl7.org/fhir/us/core/StructureDefinition/us-core-encounter"
                                ]
                            },
                            "status": "finished",
                            "class": {
                                "system": "http://terminology.hl7.org/CodeSystem/v3-ActCode",
                                "code": "AMB",
                                "display": "ambulatory"
                            },
                            "type": [
                                {
                                    "coding": [
                                        {
                                            "system": "http://www.ama-assn.org/go/cpt",
                                            "code": "99215"
                                        }
                                    ],
                                    "text": "Office Visit, High Complexity"
                                }
                            ],
                            "subject": {
                                "reference": "Patient/result-profile-in-ra"
                            },
                            "participant": [
                                {
                                    "individual": {
                                        "reference": "Practitioner/result-profile-in-ra"
                                    }
                                }
                            ],
                            "diagnosis": [
                                {
                                    "condition": {
                                        "reference": "Condition/result-profile-in-ra"
                                    }
                                }
                            ],
                            "period": {
                                "start": "2017-02-03",
                                "end": "2017-02-03"
                            },
                            "serviceProvider": {
                                "reference": "Organization/result-profile-in-ra"
                            }
                        }
                    },
                    {
                        "fullUrl": "http://example.org/fhir/ra/Organization/result-profile-in-ra-author",
                        "resource": {
                            "resourceType": "Organization",
                            "id": "result-profile-in-ra-author",
                            "meta": {
                                "extension": [
                                    {
                                        "url": "http://hl7.org/fhir/StructureDefinition/instance-name",
                                        "valueString": "Payer"
                                    },
                                    {
                                        "url": "http://hl7.org/fhir/StructureDefinition/instance-description",
                                        "valueMarkdown": "Payer that generated Risk Adjustment Coding Gap Report."
                                    }
                                ],
                                "profile": [
                                    "http://hl7.org/fhir/us/core/StructureDefinition/us-core-organization"
                                ]
                            },
                            "active": true,
                            "type": [
                                {
                                    "coding": [
                                        {
                                            "system": "http://terminology.hl7.org/CodeSystem/organization-type",
                                            "code": "pay",
                                            "display": "payer"
                                        }
                                    ]
                                }
                            ],
                            "name": "ABC Payer",
                            "telecom": [
                                {
                                    "system": "phone",
                                    "value": "(+1) 123-456-7890"
                                },
                                {
                                    "system": "email",
                                    "value": "customer-service@ABCPayer.com"
                                }
                            ],
                            "address": [
                                {
                                    "line": [
                                        "100 Insurance Lane, Suite 700"
                                    ],
                                    "city": "Amherst",
                                    "state": "MA",
                                    "postalCode": "01002",
                                    "country": "USA"
                                }
                            ]
                        }
                    }
                ]
            },
            "request": {
                "method": "PUT",
                "url": "Bundle/result-profile-in-ra"
            }
        },
        {
            "resource": {
                "resourceType": "Bundle",
                "id": "result-evaluatedresources-duplicates-out-ra",
                "meta": {
                    "profile": [
                        "http://hl7.org/fhir/us/davinci-ra/StructureDefinition/ra-measurereport-bundle"
                    ]
                },
                "identifier": {
                    "system": "urn:ietf:rfc:3986",
                    "value": "urn:uuid:8d3e72d9-9d74-4cbb-b797-a1cab0d13492"
                },
                "type": "collection",
                "timestamp": "2021-11-16T06:17:58.172+00:00",
                "entry": [
                    {
                        "fullUrl": "https://ra-sandbox.alphora.com/cqf-ruler-r4/fhir/MeasureReport/result-evaluatedresources-duplicates-out-ra",
                        "resource": {
                            "resourceType": "MeasureReport",
                            "id": "result-evaluatedresources-duplicates-out-ra",
                            "meta": {
                                "profile": [
                                    "http://hl7.org/fhir/us/davinci-ra/StructureDefinition/ra-measurereport"
                                ]
                            },
                            "extension": [
                                {
                                    "url": "http://hl7.org/fhir/us/davinci-ra/StructureDefinition/ra-clinicalDataCollectionDeadline",
                                    "valueDate": "2022-03-31"
                                }
                            ],
                            "status": "complete",
                            "type": "individual",
                            "measure": "https://build.fhir.org/ig/HL7/davinci-ra/Measure-RAModelExample01",
                            "subject": {
                                "reference": "Patient/result-evaluatedresources-duplicates-out-ra"
                            },
                            "date": "2021-10-18",
                            "reporter": {
                                "reference": "Organization/result-evaluatedresources-duplicates-out-ra-reporter"
                            },
                            "period": {
                                "start": "2021-01-01",
                                "end": "2021-09-30"
                            },
                            "group": [
                                {
                                    "id": "group-001",
                                    "extension": [
                                        {
                                            "url": "http://hl7.org/fhir/us/davinci-ra/StructureDefinition/ra-suspectType",
                                            "valueCodeableConcept": {
                                                "coding": [
                                                    {
                                                        "system": "http://hl7.org/fhir/us/davinci-ra/CodeSystem/suspect-type",
                                                        "code": "historic"
                                                    }
                                                ]
                                            }
                                        },
                                        {
                                            "url": "http://hl7.org/fhir/us/davinci-ra/StructureDefinition/ra-evidenceStatus",
                                            "valueCodeableConcept": {
                                                "coding": [
                                                    {
                                                        "system": "http://hl7.org/fhir/us/davinci-ra/CodeSystem/evidence-status",
                                                        "code": "closed-gap"
                                                    }
                                                ]
                                            }
                                        },
                                        {
                                            "url": "http://hl7.org/fhir/us/davinci-ra/StructureDefinition/ra-evidenceStatusDate",
                                            "valueDate": "2021-04-01"
                                        },
                                        {
                                            "url": "http://hl7.org/fhir/us/davinci-ra/StructureDefinition/ra-hierarchicalStatus",
                                            "valueCodeableConcept": {
                                                "coding": [
                                                    {
                                                        "system": "http://hl7.org/fhir/us/davinci-ra/CodeSystem/hierarchical-status",
                                                        "code": "applied-not-superseded"
                                                    }
                                                ]
                                            }
                                        }
                                    ],
                                    "code": {
                                        "coding": [
                                            {
                                                "system": "http://terminology.hl7.org/CodeSystem/cmshcc",
                                                "version": "24",
                                                "code": "18",
                                                "display": "Diabetes with Chronic Complications"
                                            }
                                        ],
                                        "text": "HCC 18: Diabetes with Chronic Complications"
                                    }
                                },
                                {
                                    "id": "group-002",
                                    "extension": [
                                        {
                                            "url": "http://hl7.org/fhir/us/davinci-ra/StructureDefinition/ra-suspectType",
                                            "valueCodeableConcept": {
                                                "coding": [
                                                    {
                                                        "system": "http://hl7.org/fhir/us/davinci-ra/CodeSystem/suspect-type",
                                                        "code": "historic"
                                                    }
                                                ]
                                            }
                                        },
                                        {
                                            "url": "http://hl7.org/fhir/us/davinci-ra/StructureDefinition/ra-evidenceStatus",
                                            "valueCodeableConcept": {
                                                "coding": [
                                                    {
                                                        "system": "http://hl7.org/fhir/us/davinci-ra/CodeSystem/evidence-status",
                                                        "code": "pending"
                                                    }
                                                ]
                                            }
                                        },
                                        {
                                            "url": "http://hl7.org/fhir/us/davinci-ra/StructureDefinition/ra-evidenceStatusDate",
                                            "valueDate": "2021-09-29"
                                        },
                                        {
                                            "url": "http://hl7.org/fhir/us/davinci-ra/StructureDefinition/ra-hierarchicalStatus",
                                            "valueCodeableConcept": {
                                                "coding": [
                                                    {
                                                        "system": "http://hl7.org/fhir/us/davinci-ra/CodeSystem/hierarchical-status",
                                                        "code": "applied-not-superseded"
                                                    }
                                                ]
                                            }
                                        }
                                    ],
                                    "code": {
                                        "coding": [
                                            {
                                                "system": "http://terminology.hl7.org/CodeSystem/cmshcc",
                                                "version": "24",
                                                "code": "111",
                                                "display": "Chronic Obstructive Pulmonary Disease"
                                            }
                                        ],
                                        "text": "HCC 111: Chronic Obstructive Pulmonary Disease"
                                    }
                                },
                                {
                                    "id": "group-003",
                                    "extension": [
                                        {
                                            "url": "http://hl7.org/fhir/us/davinci-ra/StructureDefinition/ra-suspectType",
                                            "valueCodeableConcept": {
                                                "coding": [
                                                    {
                                                        "system": "http://hl7.org/fhir/us/davinci-ra/CodeSystem/suspect-type",
                                                        "code": "historic"
                                                    }
                                                ]
                                            }
                                        },
                                        {
                                            "url": "http://hl7.org/fhir/us/davinci-ra/StructureDefinition/ra-evidenceStatus",
                                            "valueCodeableConcept": {
                                                "coding": [
                                                    {
                                                        "system": "http://hl7.org/fhir/us/davinci-ra/CodeSystem/evidence-status",
                                                        "code": "open-gap"
                                                    }
                                                ]
                                            }
                                        },
                                        {
                                            "url": "http://hl7.org/fhir/us/davinci-ra/StructureDefinition/ra-evidenceStatusDate",
                                            "valueDate": "2020-07-15"
                                        },
                                        {
                                            "url": "http://hl7.org/fhir/us/davinci-ra/StructureDefinition/ra-hierarchicalStatus",
                                            "valueCodeableConcept": {
                                                "coding": [
                                                    {
                                                        "system": "http://hl7.org/fhir/us/davinci-ra/CodeSystem/hierarchical-status",
                                                        "code": "applied-not-superseded"
                                                    }
                                                ]
                                            }
                                        }
                                    ],
                                    "code": {
                                        "coding": [
                                            {
                                                "system": "http://terminology.hl7.org/CodeSystem/cmshcc",
                                                "version": "24",
                                                "code": "53",
                                                "display": "Major Depressive, Bipolar, and Paranoid Disorders"
                                            }
                                        ],
                                        "text": "HCC 59: Major Depressive, Bipolar, and Paranoid Disorders"
                                    }
                                },
                                {
                                    "id": "group-004",
                                    "extension": [
                                        {
                                            "url": "http://hl7.org/fhir/us/davinci-ra/StructureDefinition/ra-suspectType",
                                            "valueCodeableConcept": {
                                                "coding": [
                                                    {
                                                        "system": "http://hl7.org/fhir/us/davinci-ra/CodeSystem/suspect-type",
                                                        "code": "historic"
                                                    }
                                                ]
                                            }
                                        },
                                        {
                                            "url": "http://hl7.org/fhir/us/davinci-ra/StructureDefinition/ra-evidenceStatus",
                                            "valueCodeableConcept": {
                                                "coding": [
                                                    {
                                                        "system": "http://hl7.org/fhir/us/davinci-ra/CodeSystem/evidence-status",
                                                        "code": "closed-gap"
                                                    }
                                                ]
                                            }
                                        },
                                        {
                                            "url": "http://hl7.org/fhir/us/davinci-ra/StructureDefinition/ra-evidenceStatusDate",
                                            "valueDate": "2021-04-27"
                                        },
                                        {
                                            "url": "http://hl7.org/fhir/us/davinci-ra/StructureDefinition/ra-hierarchicalStatus",
                                            "valueCodeableConcept": {
                                                "coding": [
                                                    {
                                                        "system": "http://hl7.org/fhir/us/davinci-ra/CodeSystem/hierarchical-status",
                                                        "code": "applied-superseded"
                                                    }
                                                ]
                                            }
                                        }
                                    ],
                                    "code": {
                                        "coding": [
                                            {
                                                "system": "http://terminology.hl7.org/CodeSystem/cmshcc",
                                                "version": "24",
                                                "code": "112",
                                                "display": "Fibrosis of lung and other chronic lung disorders"
                                            }
                                        ],
                                        "text": "HCC 112: Fibrosis of lung and other chronic lung disorders"
                                    }
                                },
                                {
                                    "id": "group-005",
                                    "extension": [
                                        {
                                            "url": "http://hl7.org/fhir/us/davinci-ra/StructureDefinition/ra-suspectType",
                                            "valueCodeableConcept": {
                                                "coding": [
                                                    {
                                                        "system": "http://hl7.org/fhir/us/davinci-ra/CodeSystem/suspect-type",
                                                        "code": "historic"
                                                    }
                                                ]
                                            }
                                        },
                                        {
                                            "url": "http://hl7.org/fhir/us/davinci-ra/StructureDefinition/ra-evidenceStatus",
                                            "valueCodeableConcept": {
                                                "coding": [
                                                    {
                                                        "system": "http://hl7.org/fhir/us/davinci-ra/CodeSystem/evidence-status",
                                                        "code": "pending"
                                                    }
                                                ]
                                            }
                                        },
                                        {
                                            "url": "http://hl7.org/fhir/us/davinci-ra/StructureDefinition/ra-evidenceStatusDate",
                                            "valueDate": "2021-09-27"
                                        },
                                        {
                                            "url": "http://hl7.org/fhir/us/davinci-ra/StructureDefinition/ra-hierarchicalStatus",
                                            "valueCodeableConcept": {
                                                "coding": [
                                                    {
                                                        "system": "http://hl7.org/fhir/us/davinci-ra/CodeSystem/hierarchical-status",
                                                        "code": "applied-superseded"
                                                    }
                                                ]
                                            }
                                        }
                                    ],
                                    "code": {
                                        "coding": [
                                            {
                                                "system": "http://terminology.hl7.org/CodeSystem/cmshcc",
                                                "version": "24",
                                                "code": "19",
                                                "display": "Diabetes without Complications"
                                            }
                                        ],
                                        "text": "HCC 19: Diabetes without Complications"
                                    }
                                },
                                {
                                    "id": "group-006",
                                    "extension": [
                                        {
                                            "url": "http://hl7.org/fhir/us/davinci-ra/StructureDefinition/ra-suspectType",
                                            "valueCodeableConcept": {
                                                "coding": [
                                                    {
                                                        "system": "http://hl7.org/fhir/us/davinci-ra/CodeSystem/suspect-type",
                                                        "code": "historic"
                                                    }
                                                ]
                                            }
                                        },
                                        {
                                            "url": "http://hl7.org/fhir/us/davinci-ra/StructureDefinition/ra-evidenceStatus",
                                            "valueCodeableConcept": {
                                                "coding": [
                                                    {
                                                        "system": "http://hl7.org/fhir/us/davinci-ra/CodeSystem/evidence-status",
                                                        "code": "open-gap"
                                                    }
                                                ]
                                            }
                                        },
                                        {
                                            "url": "http://hl7.org/fhir/us/davinci-ra/StructureDefinition/ra-evidenceStatusDate",
                                            "valueDate": "2020-12-15"
                                        },
                                        {
                                            "url": "http://hl7.org/fhir/us/davinci-ra/StructureDefinition/ra-hierarchicalStatus",
                                            "valueCodeableConcept": {
                                                "coding": [
                                                    {
                                                        "system": "http://hl7.org/fhir/us/davinci-ra/CodeSystem/hierarchical-status",
                                                        "code": "applied-superseded"
                                                    }
                                                ]
                                            }
                                        }
                                    ],
                                    "code": {
                                        "coding": [
                                            {
                                                "system": "http://terminology.hl7.org/CodeSystem/cmshcc",
                                                "version": "24",
                                                "code": "84",
                                                "display": "Cardio-Respiratory Failure and Shock"
                                            }
                                        ],
                                        "text": "HCC 84: Cardio-Respiratory Failure and Shock"
                                    }
                                },
                                {
                                    "id": "group-007",
                                    "extension": [
                                        {
                                            "url": "http://hl7.org/fhir/us/davinci-ra/StructureDefinition/ra-suspectType",
                                            "valueCodeableConcept": {
                                                "coding": [
                                                    {
                                                        "system": "http://hl7.org/fhir/us/davinci-ra/CodeSystem/suspect-type",
                                                        "code": "suspected"
                                                    }
                                                ]
                                            }
                                        },
                                        {
                                            "url": "http://hl7.org/fhir/us/davinci-ra/StructureDefinition/ra-evidenceStatus",
                                            "valueCodeableConcept": {
                                                "coding": [
                                                    {
                                                        "system": "http://hl7.org/fhir/us/davinci-ra/CodeSystem/evidence-status",
                                                        "code": "closed-gap"
                                                    }
                                                ]
                                            }
                                        },
                                        {
                                            "url": "http://hl7.org/fhir/us/davinci-ra/StructureDefinition/ra-evidenceStatusDate",
                                            "valueDate": "2021-03-15"
                                        },
                                        {
                                            "url": "http://hl7.org/fhir/us/davinci-ra/StructureDefinition/ra-hierarchicalStatus",
                                            "valueCodeableConcept": {
                                                "coding": [
                                                    {
                                                        "system": "http://hl7.org/fhir/us/davinci-ra/CodeSystem/hierarchical-status",
                                                        "code": "applied-not-superseded"
                                                    }
                                                ]
                                            }
                                        }
                                    ],
                                    "code": {
                                        "coding": [
                                            {
                                                "system": "http://terminology.hl7.org/CodeSystem/cmshcc",
                                                "version": "24",
                                                "code": "22",
                                                "display": "Morbid Obesity"
                                            }
                                        ],
                                        "text": "HCC 22: Morbid Obesity"
                                    }
                                },
                                {
                                    "id": "group-008",
                                    "extension": [
                                        {
                                            "url": "http://hl7.org/fhir/us/davinci-ra/StructureDefinition/ra-suspectType",
                                            "valueCodeableConcept": {
                                                "coding": [
                                                    {
                                                        "system": "http://hl7.org/fhir/us/davinci-ra/CodeSystem/suspect-type",
                                                        "code": "suspected"
                                                    }
                                                ]
                                            }
                                        },
                                        {
                                            "url": "http://hl7.org/fhir/us/davinci-ra/StructureDefinition/ra-evidenceStatus",
                                            "valueCodeableConcept": {
                                                "coding": [
                                                    {
                                                        "system": "http://hl7.org/fhir/us/davinci-ra/CodeSystem/evidence-status",
                                                        "code": "pending"
                                                    }
                                                ]
                                            }
                                        },
                                        {
                                            "url": "http://hl7.org/fhir/us/davinci-ra/StructureDefinition/ra-evidenceStatusDate",
                                            "valueDate": "2021-09-27"
                                        },
                                        {
                                            "url": "http://hl7.org/fhir/us/davinci-ra/StructureDefinition/ra-hierarchicalStatus",
                                            "valueCodeableConcept": {
                                                "coding": [
                                                    {
                                                        "system": "http://hl7.org/fhir/us/davinci-ra/CodeSystem/hierarchical-status",
                                                        "code": "applied-not-superseded"
                                                    }
                                                ]
                                            }
                                        }
                                    ],
                                    "code": {
                                        "coding": [
                                            {
                                                "system": "http://terminology.hl7.org/CodeSystem/cmshcc",
                                                "version": "24",
                                                "code": "96",
                                                "display": "Specified Heart Arrhythmias"
                                            }
                                        ],
                                        "text": "HCC 96: Specified Heart Arrhythmias"
                                    }
                                },
                                {
                                    "id": "group-009",
                                    "extension": [
                                        {
                                            "url": "http://hl7.org/fhir/us/davinci-ra/StructureDefinition/ra-suspectType",
                                            "valueCodeableConcept": {
                                                "coding": [
                                                    {
                                                        "system": "http://hl7.org/fhir/us/davinci-ra/CodeSystem/suspect-type",
                                                        "code": "suspected"
                                                    }
                                                ]
                                            }
                                        },
                                        {
                                            "url": "http://hl7.org/fhir/us/davinci-ra/StructureDefinition/ra-evidenceStatus",
                                            "valueCodeableConcept": {
                                                "coding": [
                                                    {
                                                        "system": "http://hl7.org/fhir/us/davinci-ra/CodeSystem/evidence-status",
                                                        "code": "open-gap"
                                                    }
                                                ]
                                            }
                                        },
                                        {
                                            "url": "http://hl7.org/fhir/us/davinci-ra/StructureDefinition/ra-evidenceStatusDate",
                                            "valueDate": "2020-07-15"
                                        },
                                        {
                                            "url": "http://hl7.org/fhir/us/davinci-ra/StructureDefinition/ra-hierarchicalStatus",
                                            "valueCodeableConcept": {
                                                "coding": [
                                                    {
                                                        "system": "http://hl7.org/fhir/us/davinci-ra/CodeSystem/hierarchical-status",
                                                        "code": "applied-not-superseded"
                                                    }
                                                ]
                                            }
                                        }
                                    ],
                                    "code": {
                                        "coding": [
                                            {
                                                "system": "http://terminology.hl7.org/CodeSystem/cmshcc",
                                                "version": "24",
                                                "code": "110",
                                                "display": "Cystic Fibrosis"
                                            }
                                        ],
                                        "text": "HCC 110: Cystic Fibrosis"
                                    }
                                },
                                {
                                    "id": "group-010",
                                    "extension": [
                                        {
                                            "url": "http://hl7.org/fhir/us/davinci-ra/StructureDefinition/ra-suspectType",
                                            "valueCodeableConcept": {
                                                "coding": [
                                                    {
                                                        "system": "http://hl7.org/fhir/us/davinci-ra/CodeSystem/suspect-type",
                                                        "code": "net-new"
                                                    }
                                                ]
                                            }
                                        },
                                        {
                                            "url": "http://hl7.org/fhir/us/davinci-ra/StructureDefinition/ra-evidenceStatus",
                                            "valueCodeableConcept": {
                                                "coding": [
                                                    {
                                                        "system": "http://hl7.org/fhir/us/davinci-ra/CodeSystem/evidence-status",
                                                        "code": "pending"
                                                    }
                                                ]
                                            }
                                        },
                                        {
                                            "url": "http://hl7.org/fhir/us/davinci-ra/StructureDefinition/ra-evidenceStatusDate",
                                            "valueDate": "2021-09-28"
                                        },
                                        {
                                            "url": "http://hl7.org/fhir/us/davinci-ra/StructureDefinition/ra-hierarchicalStatus",
                                            "valueCodeableConcept": {
                                                "coding": [
                                                    {
                                                        "system": "http://hl7.org/fhir/us/davinci-ra/CodeSystem/hierarchical-status",
                                                        "code": "applied-not-superseded"
                                                    }
                                                ]
                                            }
                                        }
                                    ],
                                    "code": {
                                        "coding": [
                                            {
                                                "system": "http://terminology.hl7.org/CodeSystem/cmshcc",
                                                "version": "24",
                                                "code": "83",
                                                "display": "Respiratory Arrest"
                                            }
                                        ],
                                        "text": "HCC 110: Cystic Fibrosis"
                                    }
                                }
                            ],
                            "evaluatedResource": [
                                {
                                    "extension": [
                                        {
                                            "url": "http://hl7.org/fhir/us/davinci-ra/StructureDefinition/ra-groupReference",
                                            "valueString": "group-001"
                                        }
                                    ],
                                    "reference": "Condition/result-evaluatedresources-duplicates-out-ra-01"
                                },
                                {
                                    "extension": [
                                        {
                                            "url": "http://hl7.org/fhir/us/davinci-ra/StructureDefinition/ra-groupReference",
                                            "valueString": "group-002"
                                        }
                                    ],
                                    "reference": "Condition/result-evaluatedresources-duplicates-out-ra-02"
                                },
                                {
                                    "extension": [
                                        {
                                            "url": "http://hl7.org/fhir/us/davinci-ra/StructureDefinition/ra-groupReference",
                                            "valueString": "group-003"
                                        }
                                    ],
                                    "reference": "Condition/result-evaluatedresources-duplicates-out-ra-03"
                                },
                                {
                                    "extension": [
                                        {
                                            "url": "http://hl7.org/fhir/us/davinci-ra/StructureDefinition/ra-groupReference",
                                            "valueString": "group-004"
                                        }
                                    ],
                                    "reference": "Condition/result-evaluatedresources-duplicates-out-ra-04"
                                },
                                {
                                    "extension": [
                                        {
                                            "url": "http://hl7.org/fhir/us/davinci-ra/StructureDefinition/ra-groupReference",
                                            "valueString": "group-005"
                                        }
                                    ],
                                    "reference": "Condition/result-evaluatedresources-duplicates-out-ra-05"
                                },
                                {
                                    "extension": [
                                        {
                                            "url": "http://hl7.org/fhir/us/davinci-ra/StructureDefinition/ra-groupReference",
                                            "valueString": "group-006"
                                        }
                                    ],
                                    "reference": "Condition/result-evaluatedresources-duplicates-out-ra-06"
                                },
                                {
                                    "extension": [
                                        {
                                            "url": "http://hl7.org/fhir/us/davinci-ra/StructureDefinition/ra-groupReference",
                                            "valueString": "group-007"
                                        }
                                    ],
                                    "reference": "Condition/result-evaluatedresources-duplicates-out-ra-07"
                                },
                                {
                                    "extension": [
                                        {
                                            "url": "http://hl7.org/fhir/us/davinci-ra/StructureDefinition/ra-groupReference",
                                            "valueString": "group-008"
                                        }
                                    ],
                                    "reference": "Condition/result-evaluatedresources-duplicates-out-ra-08"
                                },
                                {
                                    "extension": [
                                        {
                                            "url": "http://hl7.org/fhir/us/davinci-ra/StructureDefinition/ra-groupReference",
                                            "valueString": "group-010"
                                        }
                                    ],
                                    "reference": "Condition/result-evaluatedresources-duplicates-out-ra-09"
                                },
                                {
                                    "extension": [
                                        {
                                            "url": "http://hl7.org/fhir/us/davinci-ra/StructureDefinition/ra-groupReference",
                                            "valueString": "group-001"
                                        }
                                    ],
                                    "reference": "Condition/result-evaluatedresources-duplicates-out-ra-10"
                                },
                                {
                                    "extension": [
                                        {
                                            "url": "http://hl7.org/fhir/us/davinci-ra/StructureDefinition/ra-groupReference",
                                            "valueString": "group-004"
                                        }
                                    ],
                                    "reference": "Condition/result-evaluatedresources-duplicates-out-ra-11"
                                },
                                {
                                    "extension": [
                                        {
                                            "url": "http://hl7.org/fhir/us/davinci-ra/StructureDefinition/ra-groupReference",
                                            "valueString": "group-001"
                                        },
                                        {
                                            "url": "http://hl7.org/fhir/us/davinci-ra/StructureDefinition/ra-groupReference",
                                            "valueString": "group-007"
                                        }
                                    ],
                                    "reference": "Encounter/result-evaluatedresources-duplicates-out-ra-01"
                                },
                                {
                                    "extension": [
                                        {
                                            "url": "http://hl7.org/fhir/us/davinci-ra/StructureDefinition/ra-groupReference",
                                            "valueString": "group-002"
                                        },
                                        {
                                            "url": "http://hl7.org/fhir/us/davinci-ra/StructureDefinition/ra-groupReference",
                                            "valueString": "group-005"
                                        },
                                        {
                                            "url": "http://hl7.org/fhir/us/davinci-ra/StructureDefinition/ra-groupReference",
                                            "valueString": "group-008"
                                        },
                                        {
                                            "url": "http://hl7.org/fhir/us/davinci-ra/StructureDefinition/ra-groupReference",
                                            "valueString": "group-010"
                                        }
                                    ],
                                    "reference": "Encounter/result-evaluatedresources-duplicates-out-ra-02"
                                },
                                {
                                    "extension": [
                                        {
                                            "url": "http://hl7.org/fhir/us/davinci-ra/StructureDefinition/ra-groupReference",
                                            "valueString": "group-003"
                                        }
                                    ],
                                    "reference": "Encounter/result-evaluatedresources-duplicates-out-ra-03"
                                },
                                {
                                    "extension": [
                                        {
                                            "url": "http://hl7.org/fhir/us/davinci-ra/StructureDefinition/ra-groupReference",
                                            "valueString": "group-004"
                                        }
                                    ],
                                    "reference": "Encounter/result-evaluatedresources-duplicates-out-ra-04"
                                },
                                {
                                    "extension": [
                                        {
                                            "url": "http://hl7.org/fhir/us/davinci-ra/StructureDefinition/ra-groupReference",
                                            "valueString": "group-006"
                                        }
                                    ],
                                    "reference": "Encounter/result-evaluatedresources-duplicates-out-ra-05"
                                },
                                {
                                    "extension": [
                                        {
                                            "url": "http://hl7.org/fhir/us/davinci-ra/StructureDefinition/ra-groupReference",
                                            "valueString": "group-001"
                                        }
                                    ],
                                    "reference": "Encounter/result-evaluatedresources-duplicates-out-ra-06"
                                },
                                {
                                    "extension": [
                                        {
                                            "url": "http://hl7.org/fhir/us/davinci-ra/StructureDefinition/ra-groupReference",
                                            "valueString": "group-004"
                                        }
                                    ],
                                    "reference": "Encounter/result-evaluatedresources-duplicates-out-ra-07"
                                },
                                {
                                    "extension": [
                                        {
                                            "url": "http://hl7.org/fhir/us/davinci-ra/StructureDefinition/ra-groupReference",
                                            "valueString": "group-009"
                                        }
                                    ],
                                    "reference": "Observation/result-evaluatedresources-duplicates-out-ra"
                                }
                            ]
                        }
                    },
                    {
                        "fullUrl": "https://ra-sandbox.alphora.com/cqf-ruler-r4/fhir/Condition/result-evaluatedresources-duplicates-out-ra-09",
                        "resource": {
                            "resourceType": "Condition",
                            "id": "result-evaluatedresources-duplicates-out-ra-09",
                            "meta": {
                                "profile": [
                                    "http://hl7.org/fhir/us/core/StructureDefinition/us-core-condition"
                                ]
                            },
                            "clinicalStatus": {
                                "coding": [
                                    {
                                        "system": "http://terminology.hl7.org/CodeSystem/condition-clinical",
                                        "code": "active",
                                        "display": "Active"
                                    }
                                ],
                                "text": "Active"
                            },
                            "verificationStatus": {
                                "coding": [
                                    {
                                        "system": "http://terminology.hl7.org/CodeSystem/condition-ver-status",
                                        "code": "confirmed",
                                        "display": "Confirmed"
                                    }
                                ],
                                "text": "Confirmed"
                            },
                            "category": [
                                {
                                    "coding": [
                                        {
                                            "system": "http://terminology.hl7.org/CodeSystem/condition-category",
                                            "code": "encounter-diagnosis",
                                            "display": "Encounter Diagnosis"
                                        }
                                    ],
                                    "text": "Problem"
                                }
                            ],
                            "code": {
                                "coding": [
                                    {
                                        "system": "http://hl7.org/fhir/sid/icd-10-cm",
                                        "code": "R09.2",
                                        "display": "Respiratory arrest"
                                    }
                                ],
                                "text": "R09.2: Respiratory arrest"
                            },
                            "subject": {
                                "reference": "Patient/result-evaluatedresources-duplicates-out-ra"
                            },
                            "onsetDateTime": "2021-09-26"
                        }
                    },
                    {
                        "fullUrl": "https://ra-sandbox.alphora.com/cqf-ruler-r4/fhir/Patient/result-evaluatedresources-duplicates-out-ra",
                        "resource": {
                            "resourceType": "Patient",
                            "id": "result-evaluatedresources-duplicates-out-ra",
                            "meta": {
                                "profile": [
                                    "http://hl7.org/fhir/us/core/StructureDefinition/us-core-patient"
                                ]
                            },
                            "text": {
                                "status": "generated",
                                "div": "<div xmlns=\"http://www.w3.org/1999/xhtml\"><div class=\"hapiHeaderText\">Eve <b>EVERYWOMAN </b></div><table class=\"hapiPropertyTable\"><tbody><tr><td>Identifier</td><td>12345</td></tr><tr><td>Address</td><td><span>2222 Home Street </span><br/><span>Ann Arbor </span><span>MI </span><span>USA </span></td></tr><tr><td>Date of birth</td><td><span>16 January 1975</span></td></tr></tbody></table></div>"
                            },
                            "extension": [
                                {
                                    "url": "http://hl7.org/fhir/us/core/StructureDefinition/us-core-birthsex",
                                    "valueCode": "F"
                                },
                                {
                                    "url": "http://hl7.org/fhir/us/core/StructureDefinition/us-core-race",
                                    "extension": [
                                        {
                                            "url": "ombCategory",
                                            "valueCoding": {
                                                "system": "urn:oid:2.16.840.1.113883.6.238",
                                                "code": "2106-3",
                                                "display": "White"
                                            }
                                        },
                                        {
                                            "url": "text",
                                            "valueString": "White"
                                        }
                                    ]
                                },
                                {
                                    "url": "http://hl7.org/fhir/us/core/StructureDefinition/us-core-ethnicity",
                                    "extension": [
                                        {
                                            "url": "ombCategory",
                                            "valueCoding": {
                                                "system": "urn:oid:2.16.840.1.113883.6.238",
                                                "code": "2186-5",
                                                "display": "Not Hispanic or Latino"
                                            }
                                        },
                                        {
                                            "url": "text",
                                            "valueString": "Not Hispanic or Latino"
                                        }
                                    ]
                                }
                            ],
                            "identifier": [
                                {
                                    "use": "usual",
                                    "type": {
                                        "coding": [
                                            {
                                                "system": "http://terminology.hl7.org/CodeSystem/v2-0203",
                                                "code": "MR",
                                                "display": "Medical record number"
                                            }
                                        ]
                                    },
                                    "system": "http://hospital.davinci.org",
                                    "value": "12345"
                                }
                            ],
                            "active": true,
                            "name": [
                                {
                                    "use": "official",
                                    "family": "result",
                                    "given": [
                                        "evaluatedresources-duplicates-out-ra"
                                    ]
                                }
                            ],
                            "gender": "female",
                            "birthDate": "1975-01-16",
                            "deceasedBoolean": false,
                            "address": [
                                {
                                    "use": "home",
                                    "line": [
                                        "2222 Home Street"
                                    ],
                                    "city": "Ann Arbor",
                                    "state": "MI",
                                    "postalCode": "99999",
                                    "country": "USA"
                                }
                            ],
                            "maritalStatus": {
                                "coding": [
                                    {
                                        "system": "http://terminology.hl7.org/CodeSystem/v3-MaritalStatus",
                                        "code": "M",
                                        "display": "Married"
                                    }
                                ]
                            },
                            "communication": [
                                {
                                    "language": {
                                        "coding": [
                                            {
                                                "system": "urn:ietf:bcp:47",
                                                "code": "en-US",
                                                "display": "English (Region=United States)"
                                            }
                                        ]
                                    },
                                    "preferred": true
                                }
                            ]
                        }
                    },
                    {
                        "fullUrl": "https://ra-sandbox.alphora.com/cqf-ruler-r4/fhir/Condition/result-evaluatedresources-duplicates-out-ra-05",
                        "resource": {
                            "resourceType": "Condition",
                            "id": "result-evaluatedresources-duplicates-out-ra-05",
                            "meta": {
                                "profile": [
                                    "http://hl7.org/fhir/us/core/StructureDefinition/us-core-condition"
                                ]
                            },
                            "clinicalStatus": {
                                "coding": [
                                    {
                                        "system": "http://terminology.hl7.org/CodeSystem/condition-clinical",
                                        "code": "active",
                                        "display": "Active"
                                    }
                                ],
                                "text": "Active"
                            },
                            "verificationStatus": {
                                "coding": [
                                    {
                                        "system": "http://terminology.hl7.org/CodeSystem/condition-ver-status",
                                        "code": "confirmed",
                                        "display": "Confirmed"
                                    }
                                ],
                                "text": "Confirmed"
                            },
                            "category": [
                                {
                                    "coding": [
                                        {
                                            "system": "http://terminology.hl7.org/CodeSystem/condition-category",
                                            "code": "encounter-diagnosis",
                                            "display": "Encounter Diagnosis"
                                        }
                                    ],
                                    "text": "Problem"
                                }
                            ],
                            "code": {
                                "coding": [
                                    {
                                        "system": "http://hl7.org/fhir/sid/icd-10-cm",
                                        "code": "J45.31",
                                        "display": "Mild persistent asthma with (acute) exacerbation"
                                    }
                                ],
                                "text": "J45.31: Mild persistent asthma with (acute) exacerbation"
                            },
                            "subject": {
                                "reference": "Patient/result-evaluatedresources-duplicates-out-ra"
                            },
                            "onsetDateTime": "2021-09-26"
                        }
                    },
                    {
                        "fullUrl": "https://ra-sandbox.alphora.com/cqf-ruler-r4/fhir/Encounter/result-evaluatedresources-duplicates-out-ra-02",
                        "resource": {
                            "resourceType": "Encounter",
                            "id": "result-evaluatedresources-duplicates-out-ra-02",
                            "meta": {
                                "extension": [
                                    {
                                        "url": "http://hl7.org/fhir/StructureDefinition/instance-name",
                                        "valueString": "Encounter with Dr Howell on 20210714 for Patient 03"
                                    },
                                    {
                                        "url": "http://hl7.org/fhir/StructureDefinition/instance-description",
                                        "valueMarkdown": "This is Encounter with Dr Howell on 20210714 for Patient 03."
                                    }
                                ],
                                "profile": [
                                    "http://hl7.org/fhir/us/core/StructureDefinition/us-core-encounter"
                                ]
                            },
                            "status": "finished",
                            "class": {
                                "system": "http://terminology.hl7.org/CodeSystem/v3-ActCode",
                                "code": "AMB",
                                "display": "ambulatory"
                            },
                            "type": [
                                {
                                    "coding": [
                                        {
                                            "system": "http://www.ama-assn.org/go/cpt",
                                            "code": "99215"
                                        }
                                    ],
                                    "text": "Office Visit, High Complexity"
                                }
                            ],
                            "subject": {
                                "reference": "Patient/result-evaluatedresources-duplicates-out-ra"
                            },
                            "participant": [
                                {
                                    "individual": {
                                        "reference": "Practitioner/result-evaluatedresources-duplicates-out-ra"
                                    }
                                }
                            ],
                            "period": {
                                "start": "2021-09-26",
                                "end": "2021-09-26"
                            },
                            "diagnosis": [
                                {
                                    "condition": {
                                        "reference": "Condition/result-evaluatedresources-duplicates-out-ra-02"
                                    }
                                },
                                {
                                    "condition": {
                                        "reference": "Condition/result-evaluatedresources-duplicates-out-ra-05"
                                    }
                                },
                                {
                                    "condition": {
                                        "reference": "Condition/result-evaluatedresources-duplicates-out-ra-08"
                                    }
                                },
                                {
                                    "condition": {
                                        "reference": "Condition/result-evaluatedresources-duplicates-out-ra-09"
                                    }
                                }
                            ],
                            "serviceProvider": {
                                "reference": "Organization/result-evaluatedresources-duplicates-out-ra"
                            }
                        }
                    },
                    {
                        "fullUrl": "https://ra-sandbox.alphora.com/cqf-ruler-r4/fhir/Condition/result-evaluatedresources-duplicates-out-ra-04",
                        "resource": {
                            "resourceType": "Condition",
                            "id": "result-evaluatedresources-duplicates-out-ra-04",
                            "meta": {
                                "profile": [
                                    "http://hl7.org/fhir/us/core/StructureDefinition/us-core-condition"
                                ]
                            },
                            "clinicalStatus": {
                                "coding": [
                                    {
                                        "system": "http://terminology.hl7.org/CodeSystem/condition-clinical",
                                        "code": "active",
                                        "display": "Active"
                                    }
                                ],
                                "text": "Active"
                            },
                            "verificationStatus": {
                                "coding": [
                                    {
                                        "system": "http://terminology.hl7.org/CodeSystem/condition-ver-status",
                                        "code": "confirmed",
                                        "display": "Confirmed"
                                    }
                                ],
                                "text": "Confirmed"
                            },
                            "category": [
                                {
                                    "coding": [
                                        {
                                            "system": "http://terminology.hl7.org/CodeSystem/condition-category",
                                            "code": "encounter-diagnosis",
                                            "display": "Encounter Diagnosis"
                                        }
                                    ],
                                    "text": "Problem"
                                }
                            ],
                            "code": {
                                "coding": [
                                    {
                                        "system": "http://hl7.org/fhir/sid/icd-10-cm",
                                        "code": "B44.81",
                                        "display": "Allergic bronchopulmonary aspergillosis"
                                    }
                                ],
                                "text": "B44.81: Allergic bronchopulmonary aspergillosis"
                            },
                            "subject": {
                                "reference": "Patient/result-evaluatedresources-duplicates-out-ra"
                            },
                            "onsetDateTime": "2021-03-27"
                        }
                    },
                    {
                        "fullUrl": "https://ra-sandbox.alphora.com/cqf-ruler-r4/fhir/Condition/result-evaluatedresources-duplicates-out-ra-01",
                        "resource": {
                            "resourceType": "Condition",
                            "id": "result-evaluatedresources-duplicates-out-ra-01",
                            "meta": {
                                "profile": [
                                    "http://hl7.org/fhir/us/core/StructureDefinition/us-core-condition"
                                ]
                            },
                            "clinicalStatus": {
                                "coding": [
                                    {
                                        "system": "http://terminology.hl7.org/CodeSystem/condition-clinical",
                                        "code": "active",
                                        "display": "Active"
                                    }
                                ],
                                "text": "Active"
                            },
                            "verificationStatus": {
                                "coding": [
                                    {
                                        "system": "http://terminology.hl7.org/CodeSystem/condition-ver-status",
                                        "code": "confirmed",
                                        "display": "Confirmed"
                                    }
                                ],
                                "text": "Confirmed"
                            },
                            "category": [
                                {
                                    "coding": [
                                        {
                                            "system": "http://terminology.hl7.org/CodeSystem/condition-category",
                                            "code": "encounter-diagnosis",
                                            "display": "Encounter Diagnosis"
                                        }
                                    ],
                                    "text": "Problem"
                                }
                            ],
                            "code": {
                                "coding": [
                                    {
                                        "system": "http://hl7.org/fhir/sid/icd-10-cm",
                                        "code": "E08.29",
                                        "display": "Diabetes mellitus due to underlying condition with other diabetic kidney complication"
                                    }
                                ],
                                "text": "E08.29: Diabetes mellitus due to underlying condition with other diabetic kidney complication"
                            },
                            "subject": {
                                "reference": "Patient/result-evaluatedresources-duplicates-out-ra"
                            },
                            "onsetDateTime": "2021-01-31"
                        }
                    },
                    {
                        "fullUrl": "https://ra-sandbox.alphora.com/cqf-ruler-r4/fhir/Encounter/result-evaluatedresources-duplicates-out-ra-02",
                        "resource": {
                            "resourceType": "Encounter",
                            "id": "result-evaluatedresources-duplicates-out-ra-02",
                            "meta": {
                                "extension": [
                                    {
                                        "url": "http://hl7.org/fhir/StructureDefinition/instance-name",
                                        "valueString": "Encounter with Dr Howell on 20210714 for Patient 03"
                                    },
                                    {
                                        "url": "http://hl7.org/fhir/StructureDefinition/instance-description",
                                        "valueMarkdown": "This is Encounter with Dr Howell on 20210714 for Patient 03."
                                    }
                                ],
                                "profile": [
                                    "http://hl7.org/fhir/us/core/StructureDefinition/us-core-encounter"
                                ]
                            },
                            "status": "finished",
                            "class": {
                                "system": "http://terminology.hl7.org/CodeSystem/v3-ActCode",
                                "code": "AMB",
                                "display": "ambulatory"
                            },
                            "type": [
                                {
                                    "coding": [
                                        {
                                            "system": "http://www.ama-assn.org/go/cpt",
                                            "code": "99215"
                                        }
                                    ],
                                    "text": "Office Visit, High Complexity"
                                }
                            ],
                            "subject": {
                                "reference": "Patient/result-evaluatedresources-duplicates-out-ra"
                            },
                            "participant": [
                                {
                                    "individual": {
                                        "reference": "Practitioner/result-evaluatedresources-duplicates-out-ra"
                                    }
                                }
                            ],
                            "period": {
                                "start": "2021-09-26",
                                "end": "2021-09-26"
                            },
                            "diagnosis": [
                                {
                                    "condition": {
                                        "reference": "Condition/result-evaluatedresources-duplicates-out-ra-02"
                                    }
                                },
                                {
                                    "condition": {
                                        "reference": "Condition/result-evaluatedresources-duplicates-out-ra-05"
                                    }
                                },
                                {
                                    "condition": {
                                        "reference": "Condition/result-evaluatedresources-duplicates-out-ra-08"
                                    }
                                },
                                {
                                    "condition": {
                                        "reference": "Condition/result-evaluatedresources-duplicates-out-ra-09"
                                    }
                                }
                            ],
                            "serviceProvider": {
                                "reference": "Organization/result-evaluatedresources-duplicates-out-ra"
                            }
                        }
                    },
                    {
                        "fullUrl": "https://ra-sandbox.alphora.com/cqf-ruler-r4/fhir/Encounter/result-evaluatedresources-duplicates-out-ra-05",
                        "resource": {
                            "resourceType": "Encounter",
                            "id": "result-evaluatedresources-duplicates-out-ra-05",
                            "meta": {
                                "extension": [
                                    {
                                        "url": "http://hl7.org/fhir/StructureDefinition/instance-name",
                                        "valueString": "Encounter with Dr Howell on 20210714 for Patient 03"
                                    },
                                    {
                                        "url": "http://hl7.org/fhir/StructureDefinition/instance-description",
                                        "valueMarkdown": "This is Encounter with Dr Howell on 20210714 for Patient 03."
                                    }
                                ],
                                "profile": [
                                    "http://hl7.org/fhir/us/core/StructureDefinition/us-core-encounter"
                                ]
                            },
                            "status": "finished",
                            "class": {
                                "system": "http://terminology.hl7.org/CodeSystem/v3-ActCode",
                                "code": "AMB",
                                "display": "ambulatory"
                            },
                            "type": [
                                {
                                    "coding": [
                                        {
                                            "system": "http://www.ama-assn.org/go/cpt",
                                            "code": "99215"
                                        }
                                    ],
                                    "text": "Office Visit, High Complexity"
                                }
                            ],
                            "subject": {
                                "reference": "Patient/result-evaluatedresources-duplicates-out-ra"
                            },
                            "participant": [
                                {
                                    "individual": {
                                        "reference": "Practitioner/result-evaluatedresources-duplicates-out-ra"
                                    }
                                }
                            ],
                            "period": {
                                "start": "2020-11-02",
                                "end": "2020-11-02"
                            },
                            "diagnosis": [
                                {
                                    "condition": {
                                        "reference": "Condition/result-evaluatedresources-duplicates-out-ra-06"
                                    }
                                }
                            ],
                            "serviceProvider": {
                                "reference": "Organization/result-evaluatedresources-duplicates-out-ra"
                            }
                        }
                    },
                    {
                        "fullUrl": "https://ra-sandbox.alphora.com/cqf-ruler-r4/fhir/Observation/result-evaluatedresources-duplicates-out-ra",
                        "resource": {
                            "resourceType": "Observation",
                            "id": "result-evaluatedresources-duplicates-out-ra",
                            "meta": {
                                "extension": [
                                    {
                                        "url": "http://hl7.org/fhir/StructureDefinition/instance-name",
                                        "valueString": "Trypsin [Mass/volume] in Serum or Plasma for Pat01"
                                    },
                                    {
                                        "url": "http://hl7.org/fhir/StructureDefinition/instance-description",
                                        "valueMarkdown": "Trypsin [Mass/volume] in Serum or Plasma for Pat01*."
                                    }
                                ],
                                "profile": [
                                    "http://hl7.org/fhir/us/core/StructureDefinition/us-core-observation-lab"
                                ]
                            },
                            "status": "final",
                            "category": [
                                {
                                    "coding": [
                                        {
                                            "system": "http://terminology.hl7.org/CodeSystem/observation-category",
                                            "code": "laboratory",
                                            "display": "Laboratory"
                                        }
                                    ],
                                    "text": "Laboratory"
                                }
                            ],
                            "code": {
                                "coding": [
                                    {
                                        "system": "http://loinc.org",
                                        "code": "33325-2",
                                        "display": "Trypsin [Mass/volume] in Serum or Plasma"
                                    }
                                ],
                                "text": "Trypsin [Mass/volume] in Serum or Plasma"
                            },
                            "subject": {
                                "reference": "Patient/result-evaluatedresources-duplicates-out-ra",
                                "display": "Eve Everywoman"
                            },
                            "effectiveDateTime": "2019-06-17",
                            "valueQuantity": {
                                "value": 770,
                                "unit": "ng/mL",
                                "system": "http://unitsofmeasure.org"
                            },
                            "referenceRange": [
                                {
                                    "low": {
                                        "value": 169,
                                        "unit": "ng/mL",
                                        "system": "http://unitsofmeasure.org",
                                        "code": "ng/mL"
                                    },
                                    "high": {
                                        "value": 773,
                                        "unit": "ng/mL",
                                        "system": "http://unitsofmeasure.org",
                                        "code": "mg/dL"
                                    },
                                    "type": {
                                        "coding": [
                                            {
                                                "system": "http://terminology.hl7.org/CodeSystem/referencerange-meaning",
                                                "code": "normal",
                                                "display": "Normal Range"
                                            }
                                        ],
                                        "text": "Normal Range"
                                    }
                                }
                            ]
                        }
                    },
                    {
                        "fullUrl": "https://ra-sandbox.alphora.com/cqf-ruler-r4/fhir/Condition/result-evaluatedresources-duplicates-out-ra-08",
                        "resource": {
                            "resourceType": "Condition",
                            "id": "result-evaluatedresources-duplicates-out-ra-08",
                            "meta": {
                                "profile": [
                                    "http://hl7.org/fhir/us/core/StructureDefinition/us-core-condition"
                                ]
                            },
                            "clinicalStatus": {
                                "coding": [
                                    {
                                        "system": "http://terminology.hl7.org/CodeSystem/condition-clinical",
                                        "code": "active",
                                        "display": "Active"
                                    }
                                ],
                                "text": "Active"
                            },
                            "verificationStatus": {
                                "coding": [
                                    {
                                        "system": "http://terminology.hl7.org/CodeSystem/condition-ver-status",
                                        "code": "confirmed",
                                        "display": "Confirmed"
                                    }
                                ],
                                "text": "Confirmed"
                            },
                            "category": [
                                {
                                    "coding": [
                                        {
                                            "system": "http://terminology.hl7.org/CodeSystem/condition-category",
                                            "code": "encounter-diagnosis",
                                            "display": "Encounter Diagnosis"
                                        }
                                    ],
                                    "text": "Problem"
                                }
                            ],
                            "code": {
                                "coding": [
                                    {
                                        "system": "http://hl7.org/fhir/sid/icd-10-cm",
                                        "code": "I48.11",
                                        "display": "Longstanding persistent atrial fibrillation"
                                    }
                                ],
                                "text": "I48.11: Longstanding persistent atrial fibrillation"
                            },
                            "subject": {
                                "reference": "Patient/result-evaluatedresources-duplicates-out-ra"
                            },
                            "onsetDateTime": "2021-09-26"
                        }
                    },
                    {
                        "fullUrl": "https://ra-sandbox.alphora.com/cqf-ruler-r4/fhir/Encounter/result-evaluatedresources-duplicates-out-ra-03",
                        "resource": {
                            "resourceType": "Encounter",
                            "id": "result-evaluatedresources-duplicates-out-ra-03",
                            "meta": {
                                "extension": [
                                    {
                                        "url": "http://hl7.org/fhir/StructureDefinition/instance-name",
                                        "valueString": "Encounter with Dr Howell on 20210714 for Patient 03"
                                    },
                                    {
                                        "url": "http://hl7.org/fhir/StructureDefinition/instance-description",
                                        "valueMarkdown": "This is Encounter with Dr Howell on 20210714 for Patient 03."
                                    }
                                ],
                                "profile": [
                                    "http://hl7.org/fhir/us/core/StructureDefinition/us-core-encounter"
                                ]
                            },
                            "status": "finished",
                            "class": {
                                "system": "http://terminology.hl7.org/CodeSystem/v3-ActCode",
                                "code": "AMB",
                                "display": "ambulatory"
                            },
                            "type": [
                                {
                                    "coding": [
                                        {
                                            "system": "http://www.ama-assn.org/go/cpt",
                                            "code": "99215"
                                        }
                                    ],
                                    "text": "Office Visit, High Complexity"
                                }
                            ],
                            "subject": {
                                "reference": "Patient/result-evaluatedresources-duplicates-out-ra"
                            },
                            "participant": [
                                {
                                    "individual": {
                                        "reference": "Practitioner/result-evaluatedresources-duplicates-out-ra"
                                    }
                                }
                            ],
                            "period": {
                                "start": "2017-02-03",
                                "end": "2017-02-03"
                            },
                            "diagnosis": [
                                {
                                    "condition": {
                                        "reference": "Condition/result-evaluatedresources-duplicates-out-ra-03"
                                    }
                                }
                            ],
                            "serviceProvider": {
                                "reference": "Organization/result-evaluatedresources-duplicates-out-ra"
                            }
                        }
                    },
                    {
                        "fullUrl": "https://ra-sandbox.alphora.com/cqf-ruler-r4/fhir/Condition/result-evaluatedresources-duplicates-out-ra-11",
                        "resource": {
                            "resourceType": "Condition",
                            "id": "result-evaluatedresources-duplicates-out-ra-11",
                            "meta": {
                                "profile": [
                                    "http://hl7.org/fhir/us/core/StructureDefinition/us-core-condition"
                                ]
                            },
                            "clinicalStatus": {
                                "coding": [
                                    {
                                        "system": "http://terminology.hl7.org/CodeSystem/condition-clinical",
                                        "code": "active",
                                        "display": "Active"
                                    }
                                ],
                                "text": "Active"
                            },
                            "verificationStatus": {
                                "coding": [
                                    {
                                        "system": "http://terminology.hl7.org/CodeSystem/condition-ver-status",
                                        "code": "confirmed",
                                        "display": "Confirmed"
                                    }
                                ],
                                "text": "Confirmed"
                            },
                            "category": [
                                {
                                    "coding": [
                                        {
                                            "system": "http://terminology.hl7.org/CodeSystem/condition-category",
                                            "code": "encounter-diagnosis",
                                            "display": "Encounter Diagnosis"
                                        }
                                    ],
                                    "text": "Problem"
                                }
                            ],
                            "code": {
                                "coding": [
                                    {
                                        "system": "http://hl7.org/fhir/sid/icd-10-cm",
                                        "code": "B44.81",
                                        "display": "Allergic bronchopulmonary aspergillosis"
                                    }
                                ],
                                "text": "B44.81: Allergic bronchopulmonary aspergillosis"
                            },
                            "subject": {
                                "reference": "Patient/result-evaluatedresources-duplicates-out-ra"
                            },
                            "onsetDateTime": "2017-01-18"
                        }
                    },
                    {
                        "fullUrl": "https://ra-sandbox.alphora.com/cqf-ruler-r4/fhir/Encounter/result-evaluatedresources-duplicates-out-ra-01",
                        "resource": {
                            "resourceType": "Encounter",
                            "id": "result-evaluatedresources-duplicates-out-ra-01",
                            "meta": {
                                "extension": [
                                    {
                                        "url": "http://hl7.org/fhir/StructureDefinition/instance-name",
                                        "valueString": "Encounter with Dr Howell on 20210714 for Patient 03"
                                    },
                                    {
                                        "url": "http://hl7.org/fhir/StructureDefinition/instance-description",
                                        "valueMarkdown": "This is Encounter with Dr Howell on 20210714 for Patient 03."
                                    }
                                ],
                                "profile": [
                                    "http://hl7.org/fhir/us/core/StructureDefinition/us-core-encounter"
                                ]
                            },
                            "status": "finished",
                            "class": {
                                "system": "http://terminology.hl7.org/CodeSystem/v3-ActCode",
                                "code": "AMB",
                                "display": "ambulatory"
                            },
                            "type": [
                                {
                                    "coding": [
                                        {
                                            "system": "http://www.ama-assn.org/go/cpt",
                                            "code": "99215"
                                        }
                                    ],
                                    "text": "Office Visit, High Complexity"
                                }
                            ],
                            "subject": {
                                "reference": "Patient/result-evaluatedresources-duplicates-out-ra"
                            },
                            "participant": [
                                {
                                    "individual": {
                                        "reference": "Practitioner/result-evaluatedresources-duplicates-out-ra"
                                    }
                                }
                            ],
                            "period": {
                                "start": "2021-01-31",
                                "end": "2021-01-31"
                            },
                            "diagnosis": [
                                {
                                    "condition": {
                                        "reference": "Condition/result-evaluatedresources-duplicates-out-ra-01"
                                    }
                                },
                                {
                                    "condition": {
                                        "reference": "Condition/result-evaluatedresources-duplicates-out-ra-07"
                                    }
                                }
                            ],
                            "serviceProvider": {
                                "reference": "Organization/result-evaluatedresources-duplicates-out-ra"
                            }
                        }
                    },
                    {
                        "fullUrl": "https://ra-sandbox.alphora.com/cqf-ruler-r4/fhir/Encounter/result-evaluatedresources-duplicates-out-ra-07",
                        "resource": {
                            "resourceType": "Encounter",
                            "id": "result-evaluatedresources-duplicates-out-ra-07",
                            "meta": {
                                "extension": [
                                    {
                                        "url": "http://hl7.org/fhir/StructureDefinition/instance-name",
                                        "valueString": "Encounter with Dr Howell on 20210714 for Patient 03"
                                    },
                                    {
                                        "url": "http://hl7.org/fhir/StructureDefinition/instance-description",
                                        "valueMarkdown": "This is Encounter with Dr Howell on 20210714 for Patient 03."
                                    }
                                ],
                                "profile": [
                                    "http://hl7.org/fhir/us/core/StructureDefinition/us-core-encounter"
                                ]
                            },
                            "status": "finished",
                            "class": {
                                "system": "http://terminology.hl7.org/CodeSystem/v3-ActCode",
                                "code": "AMB",
                                "display": "ambulatory"
                            },
                            "type": [
                                {
                                    "coding": [
                                        {
                                            "system": "http://www.ama-assn.org/go/cpt",
                                            "code": "99215"
                                        }
                                    ],
                                    "text": "Office Visit, High Complexity"
                                }
                            ],
                            "subject": {
                                "reference": "Patient/result-evaluatedresources-duplicates-out-ra"
                            },
                            "participant": [
                                {
                                    "individual": {
                                        "reference": "Practitioner/result-evaluatedresources-duplicates-out-ra"
                                    }
                                }
                            ],
                            "period": {
                                "start": "2017-01-18",
                                "end": "2017-01-18"
                            },
                            "diagnosis": [
                                {
                                    "condition": {
                                        "reference": "Condition/result-evaluatedresources-duplicates-out-ra-11"
                                    }
                                }
                            ],
                            "serviceProvider": {
                                "reference": "Organization/result-evaluatedresources-duplicates-out-ra"
                            }
                        }
                    },
                    {
                        "fullUrl": "https://ra-sandbox.alphora.com/cqf-ruler-r4/fhir/Condition/result-evaluatedresources-duplicates-out-ra-03",
                        "resource": {
                            "resourceType": "Condition",
                            "id": "result-evaluatedresources-duplicates-out-ra-03",
                            "meta": {
                                "profile": [
                                    "http://hl7.org/fhir/us/core/StructureDefinition/us-core-condition"
                                ]
                            },
                            "clinicalStatus": {
                                "coding": [
                                    {
                                        "system": "http://terminology.hl7.org/CodeSystem/condition-clinical",
                                        "code": "active",
                                        "display": "Active"
                                    }
                                ],
                                "text": "Active"
                            },
                            "verificationStatus": {
                                "coding": [
                                    {
                                        "system": "http://terminology.hl7.org/CodeSystem/condition-ver-status",
                                        "code": "confirmed",
                                        "display": "Confirmed"
                                    }
                                ],
                                "text": "Confirmed"
                            },
                            "category": [
                                {
                                    "coding": [
                                        {
                                            "system": "http://terminology.hl7.org/CodeSystem/condition-category",
                                            "code": "encounter-diagnosis",
                                            "display": "Encounter Diagnosis"
                                        }
                                    ],
                                    "text": "Problem"
                                }
                            ],
                            "code": {
                                "coding": [
                                    {
                                        "system": "http://hl7.org/fhir/sid/icd-10-cm",
                                        "code": "F31.61",
                                        "display": "Bipolar disorder, current episode mixed, mild"
                                    }
                                ],
                                "text": "Bipolar disorder, current episode mixed, mild"
                            },
                            "subject": {
                                "reference": "Patient/result-evaluatedresources-duplicates-out-ra"
                            },
                            "onsetDateTime": "2017-02-03"
                        }
                    },
                    {
                        "fullUrl": "https://ra-sandbox.alphora.com/cqf-ruler-r4/fhir/Condition/result-evaluatedresources-duplicates-out-ra-10",
                        "resource": {
                            "resourceType": "Condition",
                            "id": "result-evaluatedresources-duplicates-out-ra-10",
                            "meta": {
                                "profile": [
                                    "http://hl7.org/fhir/us/core/StructureDefinition/us-core-condition"
                                ]
                            },
                            "clinicalStatus": {
                                "coding": [
                                    {
                                        "system": "http://terminology.hl7.org/CodeSystem/condition-clinical",
                                        "code": "active",
                                        "display": "Active"
                                    }
                                ],
                                "text": "Active"
                            },
                            "verificationStatus": {
                                "coding": [
                                    {
                                        "system": "http://terminology.hl7.org/CodeSystem/condition-ver-status",
                                        "code": "confirmed",
                                        "display": "Confirmed"
                                    }
                                ],
                                "text": "Confirmed"
                            },
                            "category": [
                                {
                                    "coding": [
                                        {
                                            "system": "http://terminology.hl7.org/CodeSystem/condition-category",
                                            "code": "encounter-diagnosis",
                                            "display": "Encounter Diagnosis"
                                        }
                                    ],
                                    "text": "Problem"
                                }
                            ],
                            "code": {
                                "coding": [
                                    {
                                        "system": "http://hl7.org/fhir/sid/icd-10-cm",
                                        "code": "E08.29",
                                        "display": "Diabetes mellitus due to underlying condition with other diabetic kidney complication"
                                    }
                                ],
                                "text": "E08.29: Diabetes mellitus due to underlying condition with other diabetic kidney complication"
                            },
                            "subject": {
                                "reference": "Patient/result-evaluatedresources-duplicates-out-ra"
                            },
                            "onsetDateTime": "2019-02-10"
                        }
                    },
                    {
                        "fullUrl": "https://ra-sandbox.alphora.com/cqf-ruler-r4/fhir/Condition/result-evaluatedresources-duplicates-out-ra-02",
                        "resource": {
                            "resourceType": "Condition",
                            "id": "result-evaluatedresources-duplicates-out-ra-02",
                            "meta": {
                                "profile": [
                                    "http://hl7.org/fhir/us/core/StructureDefinition/us-core-condition"
                                ]
                            },
                            "clinicalStatus": {
                                "coding": [
                                    {
                                        "system": "http://terminology.hl7.org/CodeSystem/condition-clinical",
                                        "code": "active",
                                        "display": "Active"
                                    }
                                ],
                                "text": "Active"
                            },
                            "verificationStatus": {
                                "coding": [
                                    {
                                        "system": "http://terminology.hl7.org/CodeSystem/condition-ver-status",
                                        "code": "confirmed",
                                        "display": "Confirmed"
                                    }
                                ],
                                "text": "Confirmed"
                            },
                            "category": [
                                {
                                    "coding": [
                                        {
                                            "system": "http://terminology.hl7.org/CodeSystem/condition-category",
                                            "code": "encounter-diagnosis",
                                            "display": "Encounter Diagnosis"
                                        }
                                    ],
                                    "text": "Problem"
                                }
                            ],
                            "code": {
                                "coding": [
                                    {
                                        "system": "http://hl7.org/fhir/sid/icd-10-cm",
                                        "code": "J45.31",
                                        "display": "Mild persistent asthma with (acute) exacerbation"
                                    }
                                ],
                                "text": "J45.31: Mild persistent asthma with (acute) exacerbation"
                            },
                            "subject": {
                                "reference": "Patient/result-evaluatedresources-duplicates-out-ra"
                            },
                            "onsetDateTime": "2021-09-26"
                        }
                    },
                    {
                        "fullUrl": "https://ra-sandbox.alphora.com/cqf-ruler-r4/fhir/Condition/result-evaluatedresources-duplicates-out-ra-06",
                        "resource": {
                            "resourceType": "Condition",
                            "id": "result-evaluatedresources-duplicates-out-ra-06",
                            "meta": {
                                "profile": [
                                    "http://hl7.org/fhir/us/core/StructureDefinition/us-core-condition"
                                ]
                            },
                            "clinicalStatus": {
                                "coding": [
                                    {
                                        "system": "http://terminology.hl7.org/CodeSystem/condition-clinical",
                                        "code": "active",
                                        "display": "Active"
                                    }
                                ],
                                "text": "Active"
                            },
                            "verificationStatus": {
                                "coding": [
                                    {
                                        "system": "http://terminology.hl7.org/CodeSystem/condition-ver-status",
                                        "code": "confirmed",
                                        "display": "Confirmed"
                                    }
                                ],
                                "text": "Confirmed"
                            },
                            "category": [
                                {
                                    "coding": [
                                        {
                                            "system": "http://terminology.hl7.org/CodeSystem/condition-category",
                                            "code": "encounter-diagnosis",
                                            "display": "Encounter Diagnosis"
                                        }
                                    ],
                                    "text": "Problem"
                                }
                            ],
                            "code": {
                                "coding": [
                                    {
                                        "system": "http://hl7.org/fhir/sid/icd-10-cm",
                                        "code": "J81.0",
                                        "display": "Acute pulmonary edema"
                                    }
                                ],
                                "text": "J81.0: Acute pulmonary edema"
                            },
                            "subject": {
                                "reference": "Patient/result-evaluatedresources-duplicates-out-ra"
                            },
                            "onsetDateTime": "2020-11-02"
                        }
                    },
                    {
                        "fullUrl": "https://ra-sandbox.alphora.com/cqf-ruler-r4/fhir/Encounter/result-evaluatedresources-duplicates-out-ra-06",
                        "resource": {
                            "resourceType": "Encounter",
                            "id": "result-evaluatedresources-duplicates-out-ra-06",
                            "meta": {
                                "extension": [
                                    {
                                        "url": "http://hl7.org/fhir/StructureDefinition/instance-name",
                                        "valueString": "Encounter with Dr Howell on 20210714 for Patient 03"
                                    },
                                    {
                                        "url": "http://hl7.org/fhir/StructureDefinition/instance-description",
                                        "valueMarkdown": "This is Encounter with Dr Howell on 20210714 for Patient 03."
                                    }
                                ],
                                "profile": [
                                    "http://hl7.org/fhir/us/core/StructureDefinition/us-core-encounter"
                                ]
                            },
                            "status": "finished",
                            "class": {
                                "system": "http://terminology.hl7.org/CodeSystem/v3-ActCode",
                                "code": "AMB",
                                "display": "ambulatory"
                            },
                            "type": [
                                {
                                    "coding": [
                                        {
                                            "system": "http://www.ama-assn.org/go/cpt",
                                            "code": "99215"
                                        }
                                    ],
                                    "text": "Office Visit, High Complexity"
                                }
                            ],
                            "subject": {
                                "reference": "Patient/result-evaluatedresources-duplicates-out-ra"
                            },
                            "participant": [
                                {
                                    "individual": {
                                        "reference": "Practitioner/result-evaluatedresources-duplicates-out-ra"
                                    }
                                }
                            ],
                            "period": {
                                "start": "2019-02-10",
                                "end": "2019-02-10"
                            },
                            "diagnosis": [
                                {
                                    "condition": {
                                        "reference": "Condition/result-evaluatedresources-duplicates-out-ra-10"
                                    }
                                }
                            ],
                            "serviceProvider": {
                                "reference": "Organization/result-evaluatedresources-duplicates-out-ra"
                            }
                        }
                    },
                    {
                        "fullUrl": "https://ra-sandbox.alphora.com/cqf-ruler-r4/fhir/Encounter/result-evaluatedresources-duplicates-out-ra-04",
                        "resource": {
                            "resourceType": "Encounter",
                            "id": "result-evaluatedresources-duplicates-out-ra-04",
                            "meta": {
                                "extension": [
                                    {
                                        "url": "http://hl7.org/fhir/StructureDefinition/instance-name",
                                        "valueString": "Encounter with Dr Howell on 20210714 for Patient 03"
                                    },
                                    {
                                        "url": "http://hl7.org/fhir/StructureDefinition/instance-description",
                                        "valueMarkdown": "This is Encounter with Dr Howell on 20210714 for Patient 03."
                                    }
                                ],
                                "profile": [
                                    "http://hl7.org/fhir/us/core/StructureDefinition/us-core-encounter"
                                ]
                            },
                            "status": "finished",
                            "class": {
                                "system": "http://terminology.hl7.org/CodeSystem/v3-ActCode",
                                "code": "AMB",
                                "display": "ambulatory"
                            },
                            "type": [
                                {
                                    "coding": [
                                        {
                                            "system": "http://www.ama-assn.org/go/cpt",
                                            "code": "99215"
                                        }
                                    ],
                                    "text": "Office Visit, High Complexity"
                                }
                            ],
                            "subject": {
                                "reference": "Patient/result-evaluatedresources-duplicates-out-ra"
                            },
                            "participant": [
                                {
                                    "individual": {
                                        "reference": "Practitioner/result-evaluatedresources-duplicates-out-ra"
                                    }
                                }
                            ],
                            "period": {
                                "start": "2021-03-27",
                                "end": "2021-03-27"
                            },
                            "diagnosis": [
                                {
                                    "condition": {
                                        "reference": "Condition/result-evaluatedresources-duplicates-out-ra-04"
                                    }
                                }
                            ],
                            "serviceProvider": {
                                "reference": "Organization/result-evaluatedresources-duplicates-out-ra"
                            }
                        }
                    },
                    {
                        "fullUrl": "https://ra-sandbox.alphora.com/cqf-ruler-r4/fhir/Condition/result-evaluatedresources-duplicates-out-ra-07",
                        "resource": {
                            "resourceType": "Condition",
                            "id": "result-evaluatedresources-duplicates-out-ra-07",
                            "meta": {
                                "profile": [
                                    "http://hl7.org/fhir/us/core/StructureDefinition/us-core-condition"
                                ]
                            },
                            "clinicalStatus": {
                                "coding": [
                                    {
                                        "system": "http://terminology.hl7.org/CodeSystem/condition-clinical",
                                        "code": "active",
                                        "display": "Active"
                                    }
                                ],
                                "text": "Active"
                            },
                            "verificationStatus": {
                                "coding": [
                                    {
                                        "system": "http://terminology.hl7.org/CodeSystem/condition-ver-status",
                                        "code": "confirmed",
                                        "display": "Confirmed"
                                    }
                                ],
                                "text": "Confirmed"
                            },
                            "category": [
                                {
                                    "coding": [
                                        {
                                            "system": "http://terminology.hl7.org/CodeSystem/condition-category",
                                            "code": "encounter-diagnosis",
                                            "display": "Encounter Diagnosis"
                                        }
                                    ],
                                    "text": "Problem"
                                }
                            ],
                            "code": {
                                "coding": [
                                    {
                                        "system": "http://hl7.org/fhir/sid/icd-10-cm",
                                        "code": "Z68.42",
                                        "display": "Body mass index [BMI] 45.0-49.9, adult"
                                    }
                                ],
                                "text": "Z68.42: Body mass index [BMI] 45.0-49.9, adult"
                            },
                            "subject": {
                                "reference": "Patient/result-evaluatedresources-duplicates-out-ra"
                            },
                            "onsetDateTime": "2021-01-31"
                        }
                    }
                ]
            },
            "request": {
                "method": "PUT",
                "url": "Bundle/result-evaluatedresources-duplicates-out-ra"
            }
        }
    ]
}